millis, UV [0-1023], BME_1_Temp, BME_1_Pres, BME_1_Hum, BME_1_Res, BME_1_Alt, BME_2_Temp, BME_2_Pres, BME_2_Hum, BME_2_Res, BME_2_Alt, Scaled. Acc.X, Scaled. Acc.Y, Scaled. Acc.Z, Gyr.X, Gyr.Y, Gyr.Z, Mag.X, Mag.Y, Mag.Z, Tmp, Radiation_count, counts_per_minute, uSvh, uSvhError, noiseCount, Ozone (PPB.), 
2254, 0,26.66474,27500,37.35185,12.88400,713.18933,27.19435,27556,42.03696,18.70400,709.08594,-999.02338, 48.33984, 19.04297, 1.48092, 0.68702, 3.09924, 36.00000, -6.30000, 56.40000, 29.03606, 0,0.00000,0.00000,0.00000,0,0, 
3996, 0,26.50456,27520,37.13977,13.75900,711.76251,27.05259,27557,41.33817,20.31400,708.99872,-999.99994, 22.46094, 34.17969, 2.38168, 0.31298, -0.81679, 36.15000, -6.00000, 55.80000, 29.22775, 1,17.32602,0.32671,0.32671,0,0, 
5739, 0,26.40061,27533,37.06400,14.82500,710.95929,26.94720,27557,40.62830,21.66900,708.90887,-992.18744, 45.41015, 38.08594, 1.63359, 0.12214, -0.05344, 34.80000, -7.20000, 56.55000, 28.84437, 1,11.52516,0.21732,0.21732,0,0, 
7481, 0,26.34690,27539,37.02300,15.68300,710.51276,26.89231,27558,40.32924,23.06400,708.90887,-977.53900, 74.70703, 51.75781, -1.93893, 4.28244, -5.35878, 36.75000, -6.30000, 57.15000, 29.13191, 1,8.63309,0.16279,0.16279,0,0, 
9225, 0,26.32162,27543,36.98493,16.47600,710.33569,26.87130,27559,40.19892,24.30100,708.81903,-998.04681, 34.17969, 50.29296, 0.22901, 1.03053, 2.58015, 34.80000, -6.00000, 56.55000, 29.37152, 1,6.90290,0.13016,0.13016,0,0, 
10968, 0,26.31435,27545,36.96644,17.15400,710.15601,26.86848,27560,40.08287,25.24500,708.72919,-955.56635, 71.77734, 36.13281, 0.06107, 1.13740, 1.03817, 36.15000, -6.00000, 57.00000, 29.37152, 1,5.74878,0.10840,0.10840,0,0, 
12712, 0,26.31783,27547,36.94315,17.88900,709.97900,26.87506,27560,40.05924,25.95300,708.81903,-975.58588, -37.10938, -75.68359, -11.56489, 3.32061, 0.51145, 37.35000, -7.95000, 57.75000, 29.56321, 1,4.92611,0.09289,0.09289,0,0, 
14455, 0,26.32320,27547,36.94960,18.44300,709.97900,26.88698,27560,40.17626,26.98000,708.72919,-994.62885, 25.87890, 8.78906, 0.64885, -0.85496, 0.12214, 36.75000, -10.05000, 54.30000, 29.41945, 1,4.30880,0.08125,0.08125,0,0, 
16201, 0,26.33236,27547,36.93280,19.04900,709.97900,26.90047,27561,40.31794,27.77300,708.81903,-979.98041, 41.99218, 1.95312, 1.77863, -1.94656, 0.93130, 44.40000, -13.35000, 54.00000, 29.75491, 2,7.65892,0.14442,0.10212,0,0, 
17943, 0,26.34437,27547,36.91627,19.53100,709.88916,26.91459,27561,40.44761,28.71200,708.72919,-976.56244, 261.71875, -21.48437, 17.20611, 4.69466, -21.06107, 41.40000, -14.85000, 54.75000, 29.65906, 2,6.89219,0.12996,0.09190,0,0, 
19689, 0,26.35637,27548,36.92341,20.19300,709.88916,26.92682,27560,40.50389,29.36000,708.72919,-968.26166, 83.00780, 41.01562, 3.00000, 1.14504, 3.08397, 41.40000, -13.35000, 55.50000, 29.27568, 2,6.26403,0.11812,0.08352,0,0, 
21432, 0,26.36964,27548,36.93068,20.65200,709.88916,26.93999,27561,40.52977,29.82300,708.72919,-982.91010, 49.80468, 39.55078, -0.77099, 3.14504, -4.38168, 40.80000, -11.25000, 60.00000, 29.80283, 3,8.61285,0.16241,0.09377,0,0, 
23175, 0,26.38260,27549,36.95566,21.09100,709.88916,26.95504,27561,40.83093,29.93100,708.64203,-1012.20700, 43.45703, 25.39062, 1.80916, 0.68702, 2.58015, 42.15000, -10.95000, 60.30000, 29.89867, 3,7.94913,0.14989,0.08654,0,1, 
24920, 0,26.39239,27549,36.96257,21.50400,709.88916,26.97355,27562,41.60567,29.99500,708.64203,-1006.34760, 55.66406, 43.94531, -1.28244, 2.50382, -3.65649, 41.55000, -11.55000, 60.45000, 29.65906, 3,7.38159,0.13919,0.08036,0,2, 
26660, 1,26.40534,27549,36.99347,21.91100,709.79932,26.98860,27562,42.41457,30.84000,708.55219,-980.46869, 87.89062, 0.97656, -2.05344, 1.12977, -2.14504, 41.55000, -12.00000, 61.20000, 29.61114, 3,6.88837,0.12989,0.07499,0,3, 
28406, 1,26.41798,27550,37.03027,22.07300,709.79932,26.99958,27563,42.87974,31.54200,708.55219,-995.11713, 38.08594, 31.25000, -3.48855, 3.50382, -1.30534, 41.70000, -10.65000, 60.00000, 29.61114, 3,6.45763,0.12177,0.07030,0,6, 
30149, 0,26.43031,27550,37.07888,22.62400,709.79932,27.01024,27562,42.93673,32.27600,708.64203,-1010.25380, 46.87500, 11.71875, -1.96183, 2.75573, -2.70229, 41.70000, -7.95000, 60.90000, 29.94660, 3,6.07718,0.11459,0.06616,0,10, 
31894, 1,26.44137,27549,37.12145,22.99800,709.88916,27.01997,27561,42.83875,32.91400,708.72919,-1012.69530, 46.38671, 20.01953, -1.70229, 2.80153, -2.11450, 42.45000, -10.20000, 60.30000, 29.75491, 4,7.65257,0.14430,0.07215,0,17, 
33637, 2,26.45116,27549,37.16392,23.25400,709.79932,27.02937,27561,42.57375,33.55100,708.72919,-996.09369, 38.57422, 28.32031, -0.76336, 2.93893, -1.55725, 41.70000, -7.20000, 61.20000, 29.99452, 4,7.24966,0.13670,0.06835,0,24, 
35383, 0,26.46064,27549,37.20636,23.56900,709.79932,27.03816,27561,42.15483,34.41100,708.72919,-984.37494, 51.26953, 36.62109, -3.00763, 2.97710, -0.46565, 42.00000, -9.60000, 60.75000, 29.80283, 4,6.88685,0.12986,0.06493,0,31, 
37125, 0,26.46948,27549,37.26060,23.89000,709.88916,27.04819,27561,41.78016,34.99000,708.72919,-996.58197, 39.55078, 33.69141, 0.95420, 0.06107, -0.01527, 42.00000, -8.10000, 59.70000, 29.99452, 4,6.55881,0.12368,0.06184,0,40, 
38867, 0,26.47802,27549,37.30299,24.18000,709.88916,27.05603,27561,41.44292,35.25700,708.64203,-984.86322, 48.82812, 37.59766, 0.67939, -0.16031, 1.92366, 40.65000, -9.15000, 60.30000, 30.18621, 4,6.26011,0.11804,0.05902,0,48, 
40613, 1,26.48465,27549,37.35111,24.50700,709.79932,27.06294,27561,41.12464,35.83400,708.72919,-1004.39450, 49.80468, 33.69141, 3.41221, 0.73282, 2.68702, 40.05000, -8.10000, 60.45000, 29.94660, 5,7.48522,0.14115,0.06312,0,54, 
42354, 0,26.49286,27549,37.38161,24.81300,709.79932,27.07109,27561,40.75816,36.14600,708.72919,-997.07025, 54.19921, 27.34375, 1.16794, 0.51908, 1.74809, 40.80000, -8.10000, 60.00000, 30.18621, 5,7.17291,0.13526,0.06049,0,61, 
44099, 1,26.50076,27550,37.41802,25.11100,709.88916,27.07924,27560,40.85085,35.65000,708.81903,-998.53510, 42.48046, 37.10938, 1.24427, 1.03817, 1.00000, 41.40000, -10.20000, 59.85000, 29.99452, 5,6.88595,0.12985,0.05807,0,65, 
45842, 0,26.50835,27549,37.43660,25.34000,709.88916,27.08771,27560,41.36666,36.02000,708.81903,-985.35150, 56.64062, 20.01953, -1.65649, 5.20611, 0.41221, 41.55000, -8.85000, 60.75000, 30.28205, 5,6.62062,0.12484,0.05583,0,69, 
47588, 0,26.51624,27549,37.46116,25.61900,709.88916,27.09649,27560,41.71794,36.62300,708.81903,-1000.48820, 43.94531, 28.80859, 2.76336, 1.26718, 2.83969, 42.00000, -8.85000, 61.50000, 30.18621, 5,6.37538,0.12022,0.05376,0,74, 
49331, 1,26.52383,27548,37.49162,25.77800,709.88916,27.10277,27560,41.77403,37.71900,708.90887,-1005.37100, 38.57422, 26.36719, -2.39695, 2.48855, -1.90840, 42.00000, -9.60000, 60.45000, 29.89867, 5,6.14754,0.11592,0.05184,0,78, 
51076, 0,26.53109,27548,37.52206,26.00200,709.97900,27.10872,27559,41.33832,38.52200,708.90887,-1012.69530, 81.54296, 17.57813, -1.77099, 3.48092, -1.87023, 40.65000, -9.15000, 60.90000, 30.52167, 5,5.93554,0.11192,0.05005,0,83, 
52818, 0,26.53741,27547,37.54647,26.33000,710.06622,27.11625,27559,40.83660,38.62900,708.90887,-1004.88280, 49.31640, 24.41406, -3.51145, 2.18321, -1.16031, 42.00000, -9.60000, 59.25000, 30.32998, 5,5.73789,0.10820,0.04839,0,87, 
54559, 0,26.54278,27547,37.56484,26.46400,709.97900,27.12315,27559,40.58665,38.48600,708.90887,-1004.39450, 45.89843, 32.71484, -4.51145, 2.81679, -3.83206, 40.35000, -8.40000, 60.60000, 30.32998, 5,5.55247,0.10470,0.04682,0,91, 
56305, 0,26.54879,27547,37.60110,26.70100,709.97900,27.13099,27560,40.52642,38.77300,708.90887,-979.98041, 31.25000, 38.57422, 1.16794, 0.09924, 4.25954, 42.75000, -8.55000, 61.20000, 30.47375, 5,5.37895,0.10143,0.04536,0,93, 
58048, 0,26.55606,27548,37.59592,26.97700,709.97900,27.13758,27559,40.47219,38.99100,708.90887,-1035.15630, 41.99218, 8.78906, 0.29771, 1.51145, -0.58779, 40.65000, -9.45000, 60.90000, 30.32998, 5,5.21576,0.09835,0.04398,0,94, 
59793, 0,26.56205,27548,37.60842,27.11700,709.88916,27.14260,27559,40.35066,39.47200,708.90887,-995.11713, 54.19921, 25.39062, -0.29008, 0.80153, 0.19084, 42.00000, -8.85000, 61.20000, 30.42582, 5,5.06235,0.09546,0.04269,0,94, 
61536, 0,26.56901,27549,37.62696,27.38300,709.88916,27.14762,27559,40.03422,40.51000,708.99872,-1015.13670, 54.68750, 42.48046, -2.61069, 2.48092, -1.25191, 41.40000, -8.70000, 60.30000, 30.32998, 6,5.90106,0.11127,0.04543,0,94, 
63282, 1,26.57501,27549,37.63353,27.71100,709.88916,27.15326,27558,39.49373,40.90800,708.90887,-999.51166, 62.01171, 12.69531, 3.28244, 0.03817, -4.06870, 41.10000, -7.20000, 60.30000, 30.28205, 6,5.73714,0.10818,0.04417,0,93, 
65025, 0,26.58133,27549,37.64013,27.74700,709.79932,27.15985,27559,39.04590,41.07000,708.81903,-1000.48820, 28.32031, 24.41406, -2.38168, 3.77863, -1.25954, 41.25000, -8.85000, 60.00000, 30.18621, 6,5.58191,0.10526,0.04297,0,90, 
66769, 0,26.58607,27549,37.62873,27.93300,709.88916,27.16644,27560,38.81675,41.31400,708.81903,-991.21088, 45.41015, 35.15625, -0.64885, 1.31298, -1.01527, 42.00000, -10.05000, 60.00000, 30.32998, 6,5.43503,0.10249,0.04184,0,84, 
68512, 0,26.59112,27548,37.62925,28.31200,709.97900,27.17271,27560,38.72678,41.19200,708.90887,-1001.95310, 46.38671, 37.10938, -2.77099, 0.77863, -0.12214, 41.70000, -8.40000, 61.35000, 30.52167, 7,6.17829,0.11650,0.04403,0,78, 
70255, 0,26.59618,27549,37.61195,28.38900,709.79932,27.17898,27559,38.63686,41.27300,708.90887,-1000.97650, 58.59375, 22.46094, -2.79389, 3.16031, 0.54962, 43.05000, -8.85000, 60.00000, 30.18621, 7,6.02401,0.11359,0.04293,0,70, 
71996, 0,26.60123,27550,37.60653,28.58300,709.70947,27.18619,27559,38.69801,41.07000,708.90887,-995.60541, 51.75781, 42.48046, 0.05344, 0.64122, -1.32824, 42.00000, -9.60000, 60.75000, 30.28205, 7,5.87709,0.11082,0.04189,0,63, 
73739, 0,26.60660,27550,37.56550,28.70100,709.79932,27.19247,27560,38.88603,41.11000,708.90887,-1011.23040, 45.89843, 19.04297, -3.53435, 2.15267, -0.26718, 41.40000, -9.15000, 60.30000, 30.61752, 7,5.73708,0.10818,0.04089,0,56, 
75484, 0,26.61103,27550,37.54220,28.84000,709.79932,27.19529,27559,39.01338,41.64500,708.90887,-997.55853, 52.73437, 42.48046, 0.16794, 2.93130, -1.50382, 41.70000, -8.40000, 59.85000, 30.61752, 7,5.60366,0.10567,0.03994,0,50, 
77227, 1,26.61577,27550,37.50112,28.98000,709.79932,27.20031,27559,39.01392,41.85500,708.81903,-987.79291, 53.71093, 40.03906, -2.38168, 2.17557, -0.26718, 42.15000, -9.90000, 57.75000, 30.42582, 7,5.47609,0.10326,0.03903,0,45, 
78972, 0,26.62019,27549,37.46001,29.04000,709.79932,27.20031,27559,38.71763,43.11300,708.90887,-993.65228, 52.73437, 37.10938, 1.35878, 0.11450, 1.91603, 42.30000, -10.05000, 58.20000, 30.61752, 7,5.35441,0.10097,0.03816,0,41, 
80715, 0,26.62619,27550,37.44283,29.24400,709.79932,27.20251,27560,38.21724,43.56400,708.81903,-1004.88280, 44.43359, 40.03906, -2.69466, 1.87023, -2.06107, 42.75000, -9.30000, 59.25000, 30.66544, 7,5.23802,0.09877,0.03733,0,38, 
82458, 0,26.63094,27550,37.40770,29.34600,709.70947,27.20846,27560,37.88699,44.11800,708.90887,-989.74603, 42.96875, 31.25000, -1.10687, 1.79389, 2.31298, 40.65000, -9.90000, 58.80000, 30.66544, 7,5.12658,0.09667,0.03654,0,35, 
84201, 0,26.63599,27550,37.39042,29.65900,709.79932,27.21348,27559,37.67131,44.40100,708.90887,-1009.76560, 60.05859, 35.64453, 2.90840, 0.28244, 0.96947, 42.00000, -9.60000, 57.15000, 30.66544, 7,5.01978,0.09466,0.03578,0,31, 
85947, 0,26.64136,27550,37.36724,29.65900,709.79932,27.21662,27560,37.44973,44.25900,708.90887,-980.46869, 32.22656, 37.10938, 0.90840, 1.77099, 1.45038, 40.35000, -9.15000, 58.35000, 30.80921, 7,4.91717,0.09272,0.03505,0,28, 
87690, 0,26.64610,27550,37.34993,29.85000,709.70947,27.22069,27559,37.34231,44.40100,708.90887,-1009.27730, 50.29296, 20.99609, -0.81679, 3.40458, -0.58015, 42.30000, -10.05000, 57.90000, 30.61752, 7,4.81900,0.09087,0.03435,0,25, 
89431, 1,26.65242,27550,37.33279,29.85000,709.70947,27.22571,27559,37.31288,44.49600,708.90887,-997.55853, 52.24609, 36.13281, -2.31298, 4.58015, -4.11450, 42.15000, -9.45000, 59.10000, 30.80921, 7,4.72441,0.08909,0.03367,0,22, 
91176, 0,26.65842,27550,37.30967,30.00000,709.70947,27.22665,27559,37.15736,45.46800,708.90887,-1009.76560, 56.64062, 14.16016, -1.76336, 3.36641, -4.06107, 41.40000, -9.90000, 59.10000, 30.66544, 7,4.63356,0.08737,0.03302,0,20, 
92918, 0,26.66316,27551,37.30423,30.15100,709.79932,27.22979,27559,36.76932,45.92000,708.99872,-1016.60150, 20.99609, 29.78515, 2.13740, 0.47328, 0.53435, 42.45000, -8.70000, 59.85000, 30.66544, 7,4.54600,0.08572,0.03240,0,20, 
94664, 0,26.66758,27550,37.28690,30.34900,709.70947,27.23167,27558,36.29879,46.58900,708.99872,-1001.95310, 38.08594, 48.33984, 0.34351, 1.75573, 0.24427, 43.50000, -10.80000, 58.65000, 30.61752, 7,4.46182,0.08413,0.03180,0,20, 
96407, 0,26.67295,27551,37.26966,30.37100,709.70947,27.23544,27559,35.93666,46.22600,708.90887,-967.28510, 73.73047, 16.60156, 1.12977, -0.07634, -0.64122, 43.05000, -9.30000, 58.95000, 30.61752, 7,4.38061,0.08260,0.03122,0,20, 
98153, 0,26.67675,27551,37.25226,30.34900,709.62231,27.23732,27559,35.77667,46.07300,708.90887,-1008.30070, 42.96875, 13.67187, -3.41985, 2.06107, -2.51145, 41.25000, -9.60000, 58.65000, 30.66544, 7,4.30240,0.08113,0.03066,0,20, 
99896, 1,26.68149,27551,37.21718,30.57100,709.70947,27.23889,27559,35.66421,46.27800,708.99872,-982.42181, 47.85156, 21.97265, -1.03817, 1.76336, -0.47328, 42.75000, -9.60000, 58.95000, 30.85713, 7,4.22697,0.07971,0.03013,0,20, 
101641, 0,26.68464,27549,37.19379,30.61600,709.79932,27.23920,27558,35.49842,46.27800,708.99872,-999.51166, 29.78515, 37.59766, -3.04580, 2.10687, -2.70992, 41.70000, -11.40000, 58.80000, 30.85713, 7,4.15397,0.07833,0.02961,0,20, 
103384, 0,26.68843,27550,37.15270,30.70600,709.70947,27.24108,27559,35.38027,46.12400,708.90887,-1002.44130, 43.94531, 30.76172, 1.55725, 2.30534, 2.44275, 42.15000, -10.65000, 58.80000, 30.80921, 7,4.08358,0.07700,0.02910,0,20, 
105126, 0,26.69413,27550,37.12958,30.75100,709.79932,27.24359,27559,35.46926,45.87000,708.90887,-1015.13670, 42.96875, 32.71484, 2.01527, -0.02290, 1.61069, 42.30000, -8.85000, 58.95000, 30.47375, 7,4.01541,0.07572,0.02862,0,20, 
106872, 0,26.69728,27549,37.11213,30.79600,709.79932,27.24578,27559,35.62934,45.81900,708.90887,-990.23431, 60.54687, 23.92578, -0.35115, 2.74809, -1.96947, 48.30000, -6.60000, 54.60000, 30.85713, 7,3.94960,0.07448,0.02815,0,20, 
108615, 0,26.70234,27549,37.07119,31.02500,709.79932,27.24578,27559,35.74787,45.87000,708.90887,-1008.78900, 47.36328, 20.01953, 0.15267, 2.28244, -3.33588, 50.40000, -3.90000, 55.65000, 30.80921, 7,3.88590,0.07327,0.02770,0,20, 
110358, 0,26.70739,27550,37.05986,31.00200,709.79932,27.24453,27558,35.59961,46.85100,708.99872,-996.58197, 59.08203, 20.50781, 2.21374, 1.49618, 2.39695, 48.60000, -5.10000, 54.90000, 30.85713, 7,3.82423,0.07211,0.02726,0,20, 
112101, 0,26.71150,27550,37.03659,31.04800,709.79932,27.24453,27558,35.33922,47.24700,708.99872,-1009.76560, 44.43359, 16.11328, -3.96183, 1.85496, -4.45038, 48.60000, -3.90000, 54.90000, 30.95298, 8,4.30215,0.08112,0.02868,0,20, 
113847, 0,26.71529,27549,37.01921,31.11800,709.79932,27.24391,27558,35.03790,47.73500,709.08594,-990.72260, 39.55078, 35.15625, -0.82443, 4.31298, -6.52672, 49.05000, -4.35000, 53.85000, 31.04882, 8,4.23602,0.07988,0.02824,0,20, 
115590, 0,26.71972,27549,36.99599,31.25700,709.88916,27.24139,27558,34.68398,48.45900,709.08594,-1004.88280, 39.06250, 35.64453, 0.09160, 0.09924, -2.42748, 49.05000, -3.60000, 54.90000, 31.04882, 8,4.17181,0.07867,0.02781,0,20, 
117334, 0,26.72414,27549,36.96684,31.32800,709.88916,27.23920,27557,34.27807,49.26300,709.08594,-995.11713, 29.78515, 28.32031, 1.95420, 3.15267, 4.00763, 48.30000, -4.35000, 55.65000, 31.24051, 8,4.10955,0.07749,0.02740,0,20, 
119076, 0,26.73077,27550,36.95568,31.44600,709.79932,27.23669,27556,33.86150,50.18500,709.17572,-1001.46480, 42.96875, 29.29687, -0.25954, 3.18321, -2.41221, 49.35000, -3.15000, 52.80000, 31.04882, 9,4.55527,0.08590,0.02863,0,20, 
120819, 0,26.73678,27549,36.92671,31.54100,709.88916,27.23544,27556,33.53382,50.00400,709.17572,-991.21088, 33.69141, 26.85547, -0.96947, 2.98473, -0.05344, 48.75000, -3.75000, 53.70000, 30.85713, 9,4.48919,0.08465,0.02822,0,20, 
122564, 0,26.74088,27548,36.89754,31.39800,709.88916,27.23481,27556,33.30024,50.61300,709.17572,-998.04681, 45.41015, 18.06641, 0.79389, 0.74809, -0.06870, 48.45000, -3.75000, 54.00000, 31.00090, 10,4.91674,0.09271,0.02932,0,20, 
124307, 0,26.74594,27548,36.87439,31.63600,709.79932,27.23450,27556,33.10781,50.67400,709.17572,-1003.41790, 51.26953, 32.71484, -2.41221, -0.18321, -1.64885, 48.45000, -3.00000, 54.45000, 31.14467, 10,4.84747,0.09141,0.02891,0,20, 
126051, 0,26.75131,27550,36.85128,31.68400,709.79932,27.23167,27557,32.95615,51.01600,709.17572,-990.72260, 73.73047, 18.06641, 0.83969, 0.23664, 1.07634, 47.70000, -5.25000, 53.70000, 31.14467, 10,4.78019,0.09014,0.02850,0,20, 
127794, 0,26.75447,27549,36.81612,31.82900,709.88916,27.22948,27556,32.79887,50.89200,709.17572,-993.16400, 31.25000, 41.99218, -1.42748, 3.63359, 2.29771, 48.60000, -2.40000, 54.30000, 30.85713, 10,4.71461,0.08890,0.02811,0,20, 
129540, 0,26.75826,27549,36.78103,31.85300,709.79932,27.22728,27556,32.65339,51.20500,709.17572,-982.91010, 50.78125, 15.62500, -1.92366, 0.98473, -2.07634, 49.95000, -3.75000, 54.45000, 30.95298, 10,4.65091,0.08770,0.02773,0,20, 
131282, 0,26.76047,27549,36.74579,31.70800,709.79932,27.22477,27556,32.57767,51.23700,709.17572,-997.55853, 46.87500, 20.99609, -2.38168, 3.24427, -0.32824, 49.05000, -2.85000, 53.55000, 31.14467, 10,4.58888,0.08653,0.02736,0,20, 
133026, 0,26.76426,27549,36.72253,31.82900,709.79932,27.22258,27556,32.49041,51.61800,709.17572,-985.35150, 41.01562, 26.85547, -1.12977, 1.80153, -1.41221, 49.95000, -3.30000, 53.40000, 31.00090, 10,4.52851,0.08539,0.02700,0,20, 
134769, 0,26.76553,27549,36.68130,32.04900,709.79932,27.22101,27555,32.41486,51.71500,709.17572,-1000.97650, 53.22265, 18.06641, 0.27481, 1.42748, 0.05344, 48.60000, -3.90000, 54.30000, 30.80921, 10,4.46971,0.08428,0.02665,0,20, 
136514, 0,26.76774,27549,36.61654,31.92600,709.79932,27.21944,27555,32.40311,51.17400,709.26556,-992.18744, 36.62109, 42.96875, 2.05344, 2.51145, -0.92366, 47.85000, -3.90000, 54.90000, 31.14467, 10,4.41235,0.08320,0.02631,0,20, 
138257, 0,26.76995,27549,36.56363,32.17200,709.79932,27.21881,27556,32.47266,50.70500,709.17572,-1005.85930, 46.87500, 44.92187, -2.27481, 2.98473, -0.87786, 50.70000, -2.55000, 52.65000, 31.14467, 10,4.35651,0.08215,0.02598,0,20, 
140000, 0,26.77122,27549,36.51062,32.09800,709.79932,27.21630,27556,32.60010,50.67400,709.26556,-1008.30070, 48.33984, 19.04297, -0.35115, 4.55725, -3.03817, 48.00000, -5.25000, 54.00000, 31.19259, 10,4.30200,0.08112,0.02565,0,20, 
141746, 0,26.77248,27549,36.44584,32.22200,709.88916,27.21191,27555,32.64035,51.36300,709.26556,-996.09369, 71.77734, 23.43750, -0.26718, -0.67176, -0.58015, 48.45000, -2.25000, 55.50000, 31.24051, 10,4.24890,0.08012,0.02534,0,20, 
143489, 0,26.77501,27549,36.39301,32.32200,709.88916,27.21003,27556,32.54147,52.03800,709.17572,-1005.85930, 62.01171, 40.52734, 2.87786, 1.83969, 2.23664, 50.40000, -2.85000, 55.35000, 31.00090, 10,4.19707,0.07914,0.02503,0,20, 
145232, 1,26.77848,27549,36.34029,32.39700,709.88916,27.20439,27555,32.40173,52.07100,709.35278,-1005.37100, 60.05859, 29.29687, -2.36641, 3.56489, 1.91603, 48.75000, -4.20000, 55.20000, 31.04882, 10,4.14651,0.07819,0.02473,0,20, 
146975, 0,26.78133,27548,36.26984,32.32200,709.88916,27.20282,27555,32.23932,52.53200,709.17572,-1000.97650, 58.59375, 33.69141, 2.05344, 0.27481, -0.09160, 49.35000, -3.15000, 55.35000, 31.14467, 10,4.09710,0.07726,0.02443,0,20, 
148720, 0,26.78448,27549,36.21713,32.34700,709.79932,27.19999,27556,32.10590,52.56500,709.17572,-1004.39450, 57.61718, 28.80859, -1.55725, 3.30534, -1.58779, 48.75000, -3.75000, 55.50000, 31.14467, 10,4.04891,0.07635,0.02414,0,20, 
150463, 0,26.78670,27549,36.16435,32.42200,709.79932,27.19968,27557,32.02489,52.43200,709.17572,-1007.32420, 52.24609, 36.62109, -0.70992, 2.45802, -0.10687, 49.20000, -3.00000, 54.75000, 31.04882, 10,4.00176,0.07546,0.02386,0,20, 
152209, 1,26.79112,27549,36.11768,32.65000,709.88916,27.19843,27556,32.03056,51.94100,709.17572,-997.07025, 53.22265, 45.89843, 0.02290, -1.32824, 1.65649, 48.30000, -2.40000, 53.85000, 31.33636, 10,3.95577,0.07459,0.02359,0,20, 
153952, 0,26.79586,27549,36.05930,32.72700,709.79932,27.19843,27557,32.13470,51.42700,709.08594,-982.42181, 64.94141, 11.23047, -0.84733, 3.03053, -2.12977, 48.75000, -3.75000, 54.00000, 31.14467, 10,3.91086,0.07375,0.02332,0,20, 
155698, 0,26.79934,27549,36.03023,32.54900,709.88916,27.19717,27557,32.29673,51.07900,709.17572,-998.04681, 47.36328, 20.01953, -0.80153, 3.83969, -4.11450, 49.50000, -2.55000, 54.75000, 31.14467, 10,3.86688,0.07292,0.02306,0,20, 
157441, 0,26.80344,27549,35.98357,32.70200,709.79932,27.19654,27557,32.47060,50.76700,709.17572,-1006.34760, 49.31640, 32.22656, -0.57252, 0.04580, 0.32824, 48.45000, -4.95000, 54.75000, 31.38428, 10,3.82392,0.07211,0.02280,0,20, 
159183, 0,26.80660,27549,35.94860,32.62500,709.79932,27.19404,27556,32.59224,50.79800,709.17572,-998.04681, 29.78515, 40.03906, 0.90840, 0.80153, -0.54198, 49.80000, -3.15000, 53.55000, 31.14467, 10,3.78184,0.07131,0.02255,0,20, 
160928, 1,26.80850,27549,35.90762,32.77900,709.79932,27.19247,27557,32.57468,51.20500,709.17572,-998.04681, 45.89843, 23.92578, -0.88550, 2.93130, -1.20611, 48.60000, -3.60000, 55.65000, 31.38428, 11,4.11482,0.07759,0.02339,0,20, 
162671, 0,26.81102,27549,35.87848,32.85600,709.79932,27.19059,27557,32.61514,51.23700,709.08594,-1029.29690, 73.73047, 31.73828, 1.95420, -0.24427, 0.52672, 49.35000, -3.90000, 53.85000, 31.14467, 11,4.07051,0.07676,0.02314,0,20, 
164417, 0,26.81545,27550,35.82603,32.90800,709.70947,27.18902,27557,32.66727,50.82900,709.08594,-983.88666, 46.38671, 31.25000, 1.00000, 0.20611, -1.17557, 49.35000, -3.90000, 53.55000, 31.24051, 11,4.02721,0.07594,0.02290,0,20, 
166160, 0,26.81924,27550,35.78527,33.03800,709.70947,27.18839,27557,32.77180,50.86000,709.08594,-969.72650, 60.54687, 22.46094, -1.03817, 2.06870, -1.48855, 50.70000, -3.75000, 55.20000, 31.33636, 11,3.98479,0.07514,0.02266,0,20, 
167905, 0,26.82303,27550,35.75041,32.72700,709.62231,27.18682,27558,32.82398,50.73600,708.99872,-998.53510, 54.68750, 15.13672, -0.41985, 4.54962, -0.07634, 50.10000, -3.90000, 54.30000, 31.19259, 11,3.94331,0.07436,0.02242,0,20, 
169648, 0,26.82714,27551,35.70383,32.83000,709.70947,27.18557,27558,32.88784,50.55100,708.99872,-981.44525, 42.96875, 29.29687, -2.57252, 1.75573, -2.01527, 49.20000, -3.75000, 55.80000, 31.19259, 11,3.90267,0.07359,0.02219,0,20, 
171394, 0,26.82967,27550,35.66299,32.83000,709.79932,27.18494,27558,32.94596,50.61300,709.08594,-1000.97650, 41.50390, 40.52734, 1.12977, 2.52672, 1.26718, 48.45000, -4.50000, 54.45000, 31.14467, 11,3.86279,0.07284,0.02196,0,20, 
173136, 0,26.83314,27550,35.62812,32.75300,709.79932,27.18431,27558,32.98665,50.55100,708.99872,-991.69916, 35.15625, 31.73828, -2.36641, 3.16031, 0.36641, 50.10000, -3.90000, 54.30000, 31.52805, 11,3.82378,0.07210,0.02174,0,20, 
174879, 0,26.83756,27551,35.59335,33.03800,709.62231,27.18306,27559,32.97489,50.64300,708.99872,-997.55853, 25.39062, 29.29687, 1.31298, 1.36641, 3.39695, 48.60000, -3.15000, 54.30000, 31.38428, 11,3.78549,0.07138,0.02152,0,20, 
176625, 0,26.84009,27551,35.56426,32.96000,709.70947,27.18243,27558,32.96319,50.82900,708.99872,-999.02338, 49.80468, 46.38671, -1.33588, 0.61069, 0.27481, 49.35000, -3.15000, 53.85000, 31.33636, 11,3.74802,0.07067,0.02131,0,20, 
178368, 0,26.84483,27551,35.53540,32.83000,709.62231,27.18086,27558,32.96304,50.98500,708.99872,-1000.48820, 39.55078, 35.64453, -1.29008, 2.38168, -0.95420, 49.05000, -3.60000, 54.60000, 31.04882, 11,3.71124,0.06998,0.02110,0,20, 
180113, 0,26.84831,27550,35.49469,32.98600,709.62231,27.17772,27559,32.93947,51.23700,708.99872,-984.37494, 51.26953, 28.32031, 3.09160, 1.03817, 1.00000, 49.95000, -3.75000, 54.75000, 31.24051, 12,4.00933,0.07560,0.02182,0,20, 
181856, 0,26.85368,27551,35.46004,33.09000,709.62231,27.17741,27559,32.88126,51.39500,708.99872,-992.18744, 49.80468, 49.31640, 0.19847, 1.19084, -0.64122, 48.75000, -4.50000, 55.50000, 31.24051, 12,3.97075,0.07487,0.02161,0,20, 
183602, 0,26.85810,27551,35.43703,32.98600,709.62231,27.17710,27558,32.82307,51.61800,708.99872,-987.30463, 34.17969, 17.57813, 1.50382, 0.86260, 3.02290, 49.05000, -3.90000, 54.90000, 31.52805, 13,4.26069,0.08034,0.02228,0,20, 
185345, 0,26.86316,27552,35.39650,33.06400,709.53247,27.17553,27558,32.74155,51.77900,708.99872,-991.69916, 59.08203, 23.92578, -2.45038, 3.35878, -2.86260, 48.60000, -3.15000, 54.30000, 31.14467, 13,4.22044,0.07958,0.02207,0,20, 
187090, 0,26.86600,27551,35.34990,33.11600,709.70947,27.17334,27558,32.64839,51.87600,708.99872,-991.21088, 18.55469, 20.99609, -1.32061, 3.16031, -1.33588, 48.30000, -2.40000, 54.60000, 31.24051, 13,4.18103,0.07884,0.02187,0,20, 
188833, 0,26.87074,27550,35.32108,33.16900,709.70947,27.17145,27559,32.54372,51.97300,708.99872,-1029.29690, 54.68750, 23.43750, 1.36641, 0.80153, 0.89313, 49.50000, -3.30000, 54.00000, 31.38428, 13,4.14233,0.07811,0.02166,0,20, 
190578, 0,26.87453,27550,35.29216,33.01200,709.70947,27.16926,27559,32.44489,52.33300,708.99872,-979.00385, 41.01562, 20.50781, -0.61069, -0.48092, 0.07634, 46.80000, -2.40000, 54.60000, 31.38428, 13,4.10427,0.07739,0.02146,0,20, 
192321, 0,26.87864,27551,35.25744,33.03800,709.62231,27.16800,27558,32.32882,52.93300,708.99872,-975.58588, 44.92187, 32.71484, 0.00000, 3.29008, 1.91603, 49.80000, -2.85000, 54.60000, 31.38428, 13,4.06701,0.07669,0.02127,0,20, 
194062, 0,26.88338,27551,35.22863,33.03800,709.62231,27.16455,27559,32.21844,53.23800,708.99872,-1005.85930, 65.42969, 22.94922, 1.41221, 0.18321, -1.80153, 50.10000, -2.85000, 54.30000, 31.48013, 14,4.34039,0.08184,0.02187,0,20, 
195806, 0,26.88749,27552,35.19391,33.24800,709.53247,27.16299,27559,32.14883,53.34100,708.90887,-989.74603, 41.99218, 36.13281, -3.08397, 3.70229, -1.91603, 48.45000, -1.80000, 53.70000, 31.48013, 15,4.60893,0.08691,0.02244,0,20, 
197549, 0,26.89159,27552,35.17090,33.24800,709.62231,27.16173,27558,32.07349,53.89400,708.99872,-1011.23040, 13.18359, 32.22656, 0.80916, 2.80153, 0.61069, 49.05000, -2.85000, 54.60000, 31.48013, 15,4.56811,0.08614,0.02224,0,20, 
199294, 0,26.89728,27552,35.12465,33.06400,709.53247,27.16016,27558,32.03864,53.75500,708.99872,-1007.32420, 48.33984, 32.71484, -0.80916, -0.08397, -0.14504, 49.80000, -3.15000, 53.85000, 31.38428, 15,4.52805,0.08538,0.02205,0,20, 
201037, 0,26.90107,27552,35.10163,33.24800,709.62231,27.15891,27558,31.97492,54.17500,708.99872,-993.65228, 42.48046, 30.76172, 2.41985, -0.93893, 1.71756, 49.35000, -4.35000, 54.90000, 31.52805, 15,4.48862,0.08464,0.02185,0,20, 
202782, 0,26.90454,27552,35.06687,33.06400,709.62231,27.15609,27558,31.87641,54.31700,708.99872,-994.14056, 65.91797, 26.36719, 1.32824, 0.59542, -0.33588, 47.85000, -2.85000, 54.90000, 31.52805, 15,4.44998,0.08391,0.02167,0,20, 
204523, 0,26.90928,27551,35.03225,33.24800,709.62231,27.15295,27558,31.77795,54.89100,708.99872,-995.60541, 31.25000, 24.90234, -1.77099, 0.24427, 1.71756, 48.00000, -3.75000, 54.75000, 31.38428, 15,4.41200,0.08320,0.02148,0,20, 
206267, 0,26.91339,27551,34.99757,33.24800,709.62231,27.15201,27559,31.69706,54.67400,708.81903,-1004.39450, 62.50000, 6.34766, -0.92366, 3.99237, -0.16031, 50.40000, -3.90000, 53.55000, 31.52805, 15,4.37456,0.08249,0.02130,0,20, 
208010, 1,26.91655,27551,34.98034,33.38100,709.62231,27.15075,27560,31.64503,54.45900,708.72919,-986.32806, 33.69141, 35.64453, 1.32061, -0.40458, 2.34351, 50.70000, -3.00000, 53.70000, 31.67182, 15,4.33783,0.08180,0.02112,0,20, 
209753, 0,26.92097,27552,34.93987,33.32800,709.53247,27.14981,27561,31.63341,54.17500,708.81903,-983.39838, 41.99218, 31.73828, 0.68702, 0.50382, 1.39695, 51.15000, -4.35000, 54.90000, 31.48013, 16,4.58843,0.08652,0.02163,0,20, 
211499, 2,26.92382,27553,34.91677,33.35500,709.44263,27.14856,27560,31.62176,54.31700,708.72919,-998.53510, 32.22656, 15.13672, -1.93130, 3.89313, -0.12214, 49.35000, -4.35000, 54.30000, 31.48013, 16,4.55052,0.08581,0.02145,0,20, 
213241, 1,26.92887,27554,34.87637,33.35500,709.53247,27.14668,27560,31.59853,54.71000,708.72919,-979.00385, 72.75391, 25.39062, -2.62595, 3.05344, -3.43511, 49.50000, -1.80000, 54.45000, 31.24051, 16,4.51317,0.08510,0.02128,0,20, 
214986, 0,26.93298,27553,34.85341,33.38100,709.44263,27.14072,27560,31.57493,54.56600,708.81903,-987.79291, 47.36328, 14.64844, 1.41221, 1.45038, 1.43511, 50.25000, -3.75000, 54.45000, 31.48013, 16,4.47648,0.08441,0.02110,0,20, 
216729, 0,26.93740,27553,34.81296,33.32800,709.53247,27.13758,27560,31.55159,54.63800,708.90887,-999.99994, 50.78125, 29.29687, -0.22137, 1.87786, 0.92366, 49.95000, -3.75000, 55.20000, 31.52805, 16,4.44033,0.08373,0.02093,0,20, 
218475, 1,26.94183,27552,34.79004,33.19500,709.53247,27.13570,27559,31.49955,55.18200,708.90887,-981.93353, 29.29687, 32.22656, 1.83206, 0.64885, 4.10687, 49.20000, -3.75000, 53.70000, 31.48013, 16,4.40482,0.08306,0.02076,0,20, 
220218, 0,26.94657,27554,34.76715,33.32800,709.35278,27.13539,27559,31.44767,55.10900,708.81903,-998.53510, 39.06250, 43.94531, -2.92366, 2.61069, -0.83206, 49.20000, -4.20000, 54.45000, 31.24051, 16,4.36983,0.08240,0.02060,0,20, 
221964, 0,26.95131,27554,34.75594,33.38100,709.35278,27.13350,27560,31.41870,54.81800,708.72919,-979.49213, 52.24609, 33.20313, -1.04580, 5.72519, -2.93893, 47.70000, -3.00000, 55.20000, 31.52805, 16,4.33546,0.08175,0.02044,0,20, 
223707, 0,26.95668,27555,34.70394,33.38100,709.35278,27.13194,27561,31.40129,55.18200,708.72919,-981.44525, 44.92187, 32.71484, 0.71756, 0.28244, 2.19084, 49.95000, -1.80000, 52.95000, 31.76766, 16,4.30160,0.08111,0.02028,0,20, 
225452, 0,26.95952,27554,34.69254,33.46100,709.44263,27.13037,27562,31.40115,54.96300,708.64203,-1005.85930, 44.43359, 30.27344, -1.25191, 3.72519, -3.41985, 48.00000, -2.55000, 54.00000, 31.57597, 16,4.26824,0.08048,0.02012,0,20, 
227192, 2,26.96394,27553,34.65797,33.35500,709.44263,27.12723,27561,31.43542,54.89100,708.72919,-1022.46090, 66.89453, 40.52734, 1.34351, 2.08397, -0.43511, 49.50000, -4.20000, 54.00000, 31.57597, 16,4.23546,0.07987,0.01997,0,20, 
228933, 1,26.96963,27554,34.63519,33.38100,709.44263,27.12472,27562,31.42944,54.81800,708.72919,-1019.53120, 38.57422, 9.27734, -1.84733, 3.08397, -0.41221, 49.05000, -4.35000, 54.90000, 31.48013, 16,4.20308,0.07926,0.01981,0,20, 
230679, 0,26.97342,27553,34.60057,33.46100,709.44263,27.12347,27561,31.40628,55.25600,708.72919,-996.09369, 35.64453, 20.01953, 2.96947, 2.70229, -2.28244, 49.95000, -3.75000, 52.95000, 31.67182, 16,4.17125,0.07866,0.01966,0,20, 
232422, 0,26.97816,27553,34.57187,33.43500,709.44263,27.12064,27561,31.41755,54.81800,708.72919,-1007.81240, 40.03906, 42.48046, -1.25191, 3.35115, -2.96183, 48.60000, -3.15000, 54.60000, 31.33636, 17,4.39860,0.08294,0.02012,0,20, 
234168, 1,26.98227,27553,34.55479,33.27500,709.44263,27.11782,27561,31.47490,54.67400,708.72919,-1004.39450, 25.39062, 20.01953, -0.47328, 2.39695, 0.30534, 51.00000, -4.95000, 53.70000, 31.52805, 17,4.36580,0.08232,0.01997,0,20, 
235911, 0,26.98543,27553,34.52594,33.51500,709.35278,27.11594,27561,31.52658,54.21100,708.64203,-1013.67180, 59.57031, 43.45703, 0.93893, 3.19847, 0.78626, 48.75000, -3.30000, 54.45000, 31.57597, 17,4.33342,0.08171,0.01982,0,20, 
237656, 0,26.98733,27554,34.50282,33.35500,709.35278,27.11218,27562,31.57812,54.74600,708.64203,-990.72260, 45.41015, 26.85547, 1.14504, 2.12214, 0.46565, 49.50000, -4.95000, 55.50000, 31.67182, 17,4.30157,0.08111,0.01967,0,20, 
239398, 0,26.99048,27555,34.47399,33.40800,709.35278,27.10872,27563,31.57204,54.81800,708.64203,-994.62885, 36.62109, 20.50781, 1.25191, 0.25191, 0.93893, 49.35000, -4.65000, 55.65000, 31.57597, 18,4.52140,0.08526,0.02010,0,20, 
241142, 2,26.99333,27554,34.44513,33.46100,709.35278,27.10496,27562,31.53136,55.73700,708.64203,-996.09369, 29.78515, 21.48437, 0.74809, 1.23664, 0.74046, 50.70000, -4.50000, 54.45000, 31.67182, 18,4.48859,0.08464,0.01995,0,20, 
242885, 0,26.99649,27554,34.41050,33.43500,709.35278,27.10340,27562,31.48512,56.38000,708.55219,-1012.69530, 62.01171, 22.94922, -0.71756, 3.02290, 0.11450, 48.00000, -3.00000, 54.45000, 31.67182, 18,4.45631,0.08403,0.01981,0,20, 
244628, 1,26.99901,27554,34.39909,33.51500,709.35278,27.10214,27563,31.40437,56.38000,708.46234,-1006.83590, 54.68750, 44.92187, 1.25191, 1.07634, -0.15267, 48.30000, -2.10000, 54.90000, 31.52805, 18,4.42445,0.08343,0.01966,0,20, 
246373, 0,27.00154,27554,34.35275,33.40800,709.44263,27.09963,27564,31.34658,56.49500,708.46234,-998.53510, 66.89453, 31.25000, 2.20611, 0.08397, 0.41985, 49.35000, -3.60000, 56.10000, 31.76766, 18,4.39308,0.08284,0.01953,0,20, 
248116, 0,27.00628,27555,34.33574,33.32800,709.35278,27.09743,27564,31.27158,56.03800,708.46234,-1003.90620, 56.15234, 40.03906, -0.04580, 3.19847, -0.72519, 49.95000, -3.30000, 54.75000, 31.86351, 19,4.60429,0.08682,0.01992,0,20, 
249873, 0,27.00912,27555,34.30109,33.38100,709.26556,27.09211,27564,31.27111,55.70000,708.37250,-992.67572, 59.08203, 31.73828, -0.69466, 1.61832, -1.05344, 49.20000, -4.20000, 53.40000, 31.67182, 19,4.57205,0.08621,0.01978,0,20, 
251618, 2,27.01260,27555,34.27233,33.43500,709.17572,27.09304,27565,31.28845,55.18200,708.37250,-996.09369, 59.08203, 37.10938, 0.25191, -0.50382, 0.46565, 50.10000, -3.15000, 55.65000, 31.38428, 19,4.54022,0.08561,0.01964,0,20, 
253366, 1,27.01734,27556,34.25533,33.40800,709.17572,27.09211,27564,31.35742,55.36600,708.37250,-996.58197, 47.85156, 38.08594, 2.38168, 0.65649, 0.75573, 49.80000, -3.60000, 54.60000, 31.67182, 19,4.50890,0.08502,0.01951,0,20, 
255111, 0,27.02145,27556,34.22663,33.14300,709.26556,27.08991,27564,31.35723,55.29200,708.37250,-992.67572, 45.41015, 16.60156, -2.36641, 4.22901, -3.58779, 50.85000, -3.90000, 56.10000, 31.76766, 19,4.47795,0.08444,0.01937,0,20, 
256859, 0,27.02429,27555,34.20364,33.38100,709.26556,27.08771,27565,31.34552,55.88700,708.28265,-1016.11320, 59.08203, 25.87890, -1.80153, -1.27481, 0.48855, 49.20000, -4.50000, 55.20000, 31.57597, 19,4.44750,0.08386,0.01924,0,20, 
258601, 0,27.02871,27555,34.19244,33.35500,709.17572,27.08615,27566,31.37992,55.55100,708.37250,-1006.83590, 29.78515, 31.25000, -0.78626, 0.51145, 0.91603, 47.85000, -2.85000, 55.35000, 31.57597, 19,4.41742,0.08330,0.01911,0,20, 
260349, 0,27.03156,27556,34.16945,33.40800,709.17572,27.08426,27565,31.44308,55.66300,708.37250,-999.51166, 50.78125, 35.64453, 0.03817, 1.03053, 2.37405, 49.95000, -3.00000, 55.20000, 31.76766, 20,4.61864,0.08709,0.01947,0,20, 
262095, 0,27.03567,27556,34.14077,33.32800,709.26556,27.08426,27564,31.50645,55.03600,708.37250,-1006.34760, 28.32031, 24.41406, -2.12214, 2.90076, 0.96947, 47.70000, -3.75000, 54.00000, 31.67182, 20,4.58782,0.08651,0.01934,0,20, 
263840, 1,27.03946,27557,34.11787,33.27500,709.17572,27.08270,27564,31.55818,54.89100,708.46234,-997.07025, 33.69141, 12.20703, 2.99237, -0.97710, 1.47328, 50.40000, -4.35000, 54.90000, 31.67182, 20,4.55737,0.08594,0.01922,0,20, 
265588, 0,27.04325,27556,34.09499,33.24800,709.17572,27.08144,27564,31.60418,54.89100,708.46234,-1008.78900, 47.85156, 12.20703, -1.02290, 3.99237, 0.17557, 48.00000, -3.75000, 54.00000, 32.00728, 20,4.52735,0.08537,0.01909,0,20, 
267333, 0,27.04862,27557,34.08388,33.32800,709.17572,27.07987,27564,31.62134,54.53100,708.37250,-997.55853, 41.50390, 39.55078, -1.76336, 2.55725, -1.67176, 49.20000, -3.75000, 54.45000, 31.91143, 20,4.49768,0.08481,0.01896,0,20, 
269081, 0,27.05367,27557,34.05531,33.32800,709.17572,27.07799,27565,31.62694,55.18200,708.37250,-1001.95310, 39.06250, 19.04297, -3.57252, 2.48855, -3.13740, 50.10000, -2.40000, 54.90000, 31.91143, 20,4.46849,0.08426,0.01884,0,20, 
270824, 0,27.05684,27557,34.03237,33.35500,709.08594,27.07736,27565,31.58652,55.55100,708.37250,-994.62885, 40.03906, 31.25000, -0.56489, 4.85496, -3.27481, 49.20000, -3.30000, 55.80000, 31.76766, 20,4.43959,0.08372,0.01872,0,20, 
272572, 0,27.05905,27556,34.01515,33.30100,709.17572,27.07485,27565,31.54018,56.00000,708.37250,-1007.32420, 41.50390, 46.38671, 1.02290, 0.06107, -0.98473, 49.20000, -3.75000, 54.45000, 31.86351, 20,4.41112,0.08318,0.01860,0,20, 
274317, 0,27.06252,27556,33.98063,33.11600,709.17572,27.07297,27565,31.48239,55.81200,708.28265,-1017.57810, 11.71875, 27.34375, -2.83206, 4.28244, -1.45802, 49.05000, -5.10000, 56.10000, 31.86351, 20,4.38302,0.08265,0.01848,0,20, 
276065, 0,27.06631,27556,33.96938,33.30100,709.17572,27.07266,27566,31.47084,56.15100,708.28265,-998.04681, 51.75781, 25.87890, -2.16794, 1.06870, -2.17557, 48.60000, -3.90000, 55.35000, 31.86351, 20,4.35521,0.08212,0.01836,0,20, 
277810, 0,27.07042,27557,33.94654,33.35500,709.08594,27.07141,27566,31.43617,56.00000,708.28265,-1016.60150, 35.15625, 36.13281, -0.31298, 4.17557, -2.89313, 49.50000, -3.75000, 54.75000, 31.86351, 20,4.32780,0.08161,0.01825,0,20, 
279556, 0,27.07453,27558,33.91790,33.24800,709.08594,27.06921,27566,31.44174,55.66300,708.19543,-1004.88280, 29.78515, 31.25000, -0.28244, -0.35115, 2.27481, 47.85000, -1.65000, 54.60000, 31.67182, 20,4.30069,0.08110,0.01813,0,20, 
281304, 0,27.07706,27557,33.90072,33.19500,709.08594,27.06701,27567,31.39548,56.22700,708.19543,-993.16400, 39.06250, 39.55078, -1.21374, 2.15267, -0.65649, 49.95000, -3.00000, 56.25000, 31.67182, 20,4.27396,0.08059,0.01802,0,20, 
283048, 0,27.08179,27558,33.88376,33.16900,708.99872,27.06576,27567,31.36082,56.57200,708.19543,-994.62885, 53.22265, 37.59766, 1.16031, 1.65649, -1.26718, 48.75000, -3.00000, 54.45000, 31.67182, 20,4.24752,0.08009,0.01791,0,20, 
284796, 1,27.08495,27558,33.85504,33.38100,708.99872,27.06262,27566,31.32026,56.64900,708.19543,-983.88666, 41.99218, 33.20313, 1.82443, -2.19084, -3.03053, 49.35000, -2.85000, 53.55000, 31.52805, 21,4.43250,0.08358,0.01824,0,20, 
286541, 1,27.08938,27558,33.83805,33.30100,708.90887,27.06200,27567,31.28567,56.76500,708.19543,-1009.76560, 34.17969, 45.89843, -1.48092, 2.41221, -1.87786, 50.70000, -4.95000, 55.50000, 31.71974, 21,4.40544,0.08307,0.01813,0,20, 
288287, 0,27.09348,27559,33.82104,33.16900,708.99872,27.06043,27567,31.26253,56.80400,708.19543,-989.74603, 54.19921, 36.13281, 1.66412, 0.79389, 3.09160, 48.30000, -1.65000, 54.90000, 32.00728, 22,4.58727,0.08650,0.01844,0,20, 
290030, 0,27.09791,27559,33.80405,33.22200,708.81903,27.05980,27567,31.28548,56.22700,708.01581,-1014.16010, 33.20313, 13.67187, -0.45802, 2.41985, -0.51908, 48.45000, -3.75000, 54.75000, 31.86351, 22,4.55960,0.08598,0.01833,0,20, 
291776, 0,27.10107,27560,33.77535,33.27500,708.90887,27.05854,27568,31.31989,55.77500,708.10565,-1004.88280, 43.45703, 17.57813, 1.60305, 3.05344, 0.62595, 49.80000, -3.15000, 54.30000, 31.71974, 22,4.53231,0.08546,0.01822,0,20, 
293519, 0,27.10517,27560,33.75834,33.22200,708.90887,27.05886,27568,31.34869,55.62500,708.10565,-982.42181, 51.26953, 38.08594, -0.29008, 3.13740, -3.09924, 48.45000, -3.30000, 54.75000, 31.67182, 22,4.50532,0.08495,0.01811,0,20, 
295267, 0,27.10928,27560,33.73553,33.22200,708.81903,27.05666,27568,31.38304,54.96300,708.01581,-1012.20700, 35.15625, 35.64453, 0.91603, 1.56489, 1.80153, 49.80000, -4.65000, 54.90000, 31.52805, 22,4.47861,0.08445,0.01801,0,20, 
297013, 1,27.11307,27560,33.71849,33.19500,708.90887,27.05509,27569,31.38864,55.10900,708.01581,-1009.27730, 48.82812, 38.57422, -1.96183, 3.11450, -2.65649, 49.95000, -3.00000, 54.75000, 31.71974, 22,4.45225,0.08395,0.01790,0,20, 
298758, 0,27.11750,27560,33.69572,33.19500,708.90887,27.05415,27568,31.40008,55.10900,708.01581,-998.53510, 37.10938, 32.71484, 0.45802, 1.71756, 1.03817, 49.80000, -3.60000, 53.85000, 32.00728, 22,4.42616,0.08346,0.01779,0,20, 
300506, 0,27.12097,27560,33.67287,33.27500,708.90887,27.05290,27568,31.40572,55.21900,708.01581,-989.74603, 43.45703, 40.52734, -2.43511, 3.45802, 0.47328, 49.05000, -3.90000, 54.90000, 31.86351, 22,4.40040,0.08298,0.01769,0,20, 
302251, 0,27.12413,27560,33.66157,33.19500,708.90887,27.05133,27569,31.41710,55.32900,708.01581,-1006.34760, 51.26953, 30.27344, -3.40458, 4.07634, -0.75573, 48.60000, -3.15000, 54.90000, 32.10312, 22,4.37495,0.08250,0.01759,0,20, 
303996, 0,27.12792,27560,33.64454,33.16900,708.90887,27.05007,27569,31.41123,55.81200,708.01581,-999.99994, 48.82812, 21.97265, -0.22137, 3.20611, -2.21374, 49.35000, -4.65000, 55.35000, 31.86351, 22,4.34977,0.08202,0.01749,0,20, 
305741, 1,27.13076,27560,33.61584,33.22200,708.90887,27.05039,27569,31.38823,56.00000,708.01581,-997.55853, 54.68750, 32.71484, 0.79389, 2.74046, 0.53435, 49.95000, -4.95000, 55.80000, 31.71974, 22,4.32486,0.08155,0.01739,0,20, 
307489, 0,27.13582,27560,33.60472,33.14300,708.90887,27.04976,27569,31.39969,55.66300,707.92859,-999.02338, 52.24609, 16.60156, 0.83969, 0.14504, 3.12214, 49.50000, -3.00000, 54.00000, 31.71974, 22,4.30028,0.08109,0.01729,0,20, 
309234, 0,27.13961,27560,33.58770,33.14300,708.81903,27.05007,27569,31.42850,55.36600,707.92859,-1014.64840, 48.33984, 26.36719, -3.35878, 4.09924, -3.11450, 49.95000, -4.20000, 54.60000, 31.91143, 22,4.27593,0.08063,0.01719,0,20, 
310982, 0,27.14435,27561,33.56498,33.14300,708.81903,27.04976,27569,31.45727,55.47700,707.92859,-986.81635, 44.92187, 18.06641, 2.73282, -1.30534, -1.37405, 49.95000, -4.20000, 56.55000, 32.00728, 22,4.25189,0.08018,0.01709,0,20, 
312727, 0,27.14783,27560,33.54793,33.14300,708.81903,27.04976,27569,31.47455,55.36600,707.92859,-993.16400, 44.43359, 15.13672, -0.71756, 1.90840, -1.96183, 49.50000, -2.55000, 54.00000, 31.67182, 22,4.22813,0.07973,0.01700,0,20, 
314472, 0,27.15130,27560,33.52509,33.01200,708.81903,27.04819,27570,31.48593,55.25600,707.92859,-993.16400, 53.71093, 38.08594, -0.58779, 1.93130, -0.10687, 49.50000, -2.55000, 54.75000, 31.91143, 23,4.39570,0.08289,0.01728,0,20, 
316220, 0,27.15509,27561,33.52545,33.06400,708.81903,27.04788,27569,31.49166,54.96300,708.01581,-1009.76560, 53.22265, 23.92578, 0.81679, 0.45038, 0.74046, 50.25000, -3.75000, 55.50000, 31.76766, 23,4.37140,0.08243,0.01719,0,20, 
317966, 1,27.15920,27561,33.48531,33.35500,708.72919,27.04788,27569,31.51471,54.96300,708.01581,-1017.08980, 40.03906, 23.43750, -0.80153, 1.79389, -1.47328, 50.40000, -1.65000, 54.30000, 32.05520, 23,4.34733,0.08198,0.01709,0,20, 
319713, 0,27.16331,27561,33.46832,33.19500,708.81903,27.04631,27569,31.50880,55.18200,708.01581,-1007.81240, 47.36328, 27.83203, -1.74046, 0.66412, -1.77863, 49.35000, -3.15000, 56.10000, 32.00728, 23,4.32358,0.08153,0.01700,0,20, 
321459, 1,27.16741,27560,33.45713,33.22200,708.90887,27.04600,27569,31.51454,55.03600,708.10565,-984.86322, 47.85156, 24.90234, -0.35878, 4.11450, 0.77099, 49.35000, -4.35000, 54.90000, 31.67182, 23,4.30003,0.08108,0.01691,0,20, 
323206, 0,27.17121,27560,33.44592,33.16900,708.99872,27.04474,27568,31.50290,55.29200,708.10565,-1004.88280, 42.48046, 43.94531, -0.66412, 2.40458, -2.73282, 49.95000, -3.75000, 54.75000, 31.67182, 23,4.27678,0.08065,0.01682,0,20, 
324952, 1,27.17500,27560,33.41733,33.09000,708.90887,27.04349,27569,31.49703,55.10900,708.01581,-997.07025, 57.12890, 11.71875, 2.09924, 1.46565, -0.29008, 49.50000, -2.55000, 54.75000, 31.91143, 23,4.25373,0.08021,0.01673,0,20, 
326700, 0,27.17848,27561,33.40030,32.98600,708.90887,27.04349,27569,31.49127,55.36600,707.92859,-1008.78900, 41.99218, 22.94922, 1.54198, 1.02290, 4.71756, 48.30000, -4.35000, 54.30000, 31.91143, 23,4.23097,0.07978,0.01664,0,20, 
328444, 1,27.18069,27560,33.38314,33.14300,708.90887,27.04161,27569,31.47382,55.81200,708.01581,-1001.95310, 53.71093, 14.16016, -2.81679, 1.78626, -1.77099, 49.20000, -4.50000, 52.95000, 32.10312, 23,4.20845,0.07936,0.01655,0,20, 
330192, 0,27.18448,27560,33.36036,33.11600,708.90887,27.04067,27569,31.43918,56.53300,708.01581,-1002.92960, 50.29296, 30.27344, -3.33588, 2.67176, -3.39695, 48.60000, -3.90000, 55.35000, 32.10312, 23,4.18614,0.07894,0.01646,0,20, 
331937, 0,27.18922,27560,33.33767,33.19500,708.99872,27.03910,27569,31.38722,57.19500,707.92859,-995.60541, 51.26953, 27.34375, -3.71756, 4.14504, -1.45802, 49.20000, -4.20000, 55.50000, 31.91143, 23,4.16409,0.07852,0.01637,0,20, 
333682, 0,27.19333,27559,33.32070,32.96000,708.90887,27.03847,27570,31.34111,56.72600,707.92859,-989.25775, 33.69141, 29.29687, -0.88550, 3.00000, -0.17557, 48.45000, -4.50000, 54.00000, 32.00728, 23,4.14227,0.07811,0.01629,0,20, 
335428, 0,27.19427,27560,33.29765,33.01200,708.90887,27.03941,27570,31.35847,56.03800,707.83875,-1017.08980, 32.71484, 36.13281, -0.04580, 0.51908, 1.11450, 49.35000, -2.40000, 54.90000, 32.05520, 23,4.12068,0.07770,0.01620,0,20, 
337173, 0,27.19933,27560,33.28079,33.14300,708.99872,27.03753,27571,31.39859,55.85000,707.83875,-1004.88280, 30.27344, 25.39062, 1.04580, 3.28244, 0.03053, 50.40000, -3.15000, 54.30000, 31.86351, 23,4.09929,0.07730,0.01612,0,20, 
338921, 0,27.20470,27559,33.26394,33.14300,708.90887,27.03502,27571,31.43291,55.66300,707.83875,-1009.76560, 61.52343, 15.13672, -3.01527, 3.41221, -3.00763, 47.40000, -2.25000, 54.75000, 32.00728, 23,4.07817,0.07690,0.01603,0,20, 
340664, 0,27.21070,27560,33.24716,33.09000,708.99872,27.03345,27571,31.42126,56.92000,707.74890,-1010.25380, 46.87500, 19.04297, 1.92366, -0.96183, -0.40458, 49.20000, -2.55000, 54.45000, 31.71974, 23,4.05721,0.07650,0.01595,0,20, 
342412, 2,27.21386,27559,33.23011,32.93400,708.99872,27.03000,27572,31.34611,58.03300,707.74890,-1017.57810, 39.06250, 26.36719, 0.03053, -1.45802, 1.90076, 47.55000, -4.35000, 56.10000, 31.91143, 23,4.03652,0.07611,0.01587,0,20, 
344157, 0,27.21828,27559,33.21897,32.93400,708.99872,27.03032,27572,31.27710,58.27700,707.65906,-991.69916, 66.89453, 33.69141, -1.41985, 3.61069, -1.24427, 48.75000, -4.95000, 55.20000, 31.76766, 23,4.01601,0.07573,0.01579,0,20, 
345903, 0,27.22176,27560,33.19618,32.83000,708.90887,27.03032,27572,31.23109,58.03300,707.74890,-1001.46480, 49.80468, 31.73828, -2.89313, 1.65649, 1.11450, 48.45000, -2.55000, 53.40000, 32.10312, 23,3.99571,0.07535,0.01571,0,20, 
347648, 1,27.22618,27560,33.19659,32.96000,708.90887,27.02969,27571,31.22528,57.59100,707.74890,-974.60931, 26.85547, 31.73828, -3.82443, 4.61832, -2.76336, 50.70000, -4.20000, 54.00000, 32.00728, 23,3.97563,0.07497,0.01563,0,20, 
349395, 0,27.22966,27560,33.17380,32.85600,708.81903,27.02969,27572,31.25404,56.68700,707.74890,-991.21088, 41.99218, 19.04297, -0.31298, 3.25954, -1.58779, 49.35000, -4.35000, 54.60000, 32.05520, 23,3.95571,0.07459,0.01555,0,20, 
351141, 0,27.23156,27560,33.15087,32.96000,708.90887,27.02875,27572,31.26546,56.38000,707.74890,-999.51166, 28.32031, 43.94531, 1.57252, 0.09924, 0.10687, 50.10000, -3.60000, 53.85000, 32.10312, 23,3.93602,0.07422,0.01548,0,20, 
352886, 0,27.23440,27560,33.13380,32.85600,708.90887,27.02624,27572,31.29399,55.96200,707.74890,-1007.32420, 35.64453, 26.85547, 1.17557, 5.06870, -3.76336, 50.40000, -3.15000, 53.85000, 32.10312, 23,3.91649,0.07385,0.01540,0,20, 
354634, 0,27.23661,27560,33.10513,32.93400,708.90887,27.02530,27571,31.31117,56.15100,707.83875,-999.51166, 36.13281, 28.32031, 1.01527, 0.61832, 0.38168, 49.35000, -3.60000, 55.35000, 32.00728, 23,3.89719,0.07349,0.01532,0,20, 
356379, 1,27.24135,27560,33.09979,32.85600,708.90887,27.02404,27571,31.29379,56.53300,707.83875,-992.67572, 41.99218, 34.66797, 2.41221, -0.08397, 0.39695, 49.80000, -3.90000, 54.30000, 32.00728, 23,3.87805,0.07313,0.01525,0,20, 
358127, 0,27.24356,27560,33.07690,32.93400,708.81903,27.02216,27570,31.27062,56.72600,707.83875,-994.14056, 55.17578, 31.73828, 1.70992, 0.00763, 0.22901, 49.20000, -4.95000, 54.75000, 31.76766, 23,3.85911,0.07277,0.01517,0,20, 
359872, 0,27.24672,27561,33.05409,32.83000,708.90887,27.02216,27571,31.26487,56.53300,707.83875,-1010.25380, 54.68750, 5.85937, 0.74046, 2.90840, 0.25954, 50.10000, -3.15000, 54.30000, 31.86351, 23,3.84037,0.07242,0.01510,0,20, 
361618, 0,27.24988,27560,33.04284,32.70200,708.90887,27.02091,27571,31.24750,57.11600,707.83875,-997.07025, 49.31640, 43.45703, -1.70992, 3.48855, 0.11450, 49.50000, -5.25000, 54.75000, 32.00728, 23,3.82180,0.07207,0.01503,0,20, 
363363, 0,27.25335,27560,33.03162,32.77900,708.81903,27.01997,27571,31.25892,56.95900,707.83875,-1006.34760, 38.08594, 32.22656, 2.18321, -0.09924, 0.71756, 48.75000, -3.30000, 54.75000, 32.00728, 23,3.80343,0.07172,0.01495,0,20, 
365111, 0,27.25620,27560,33.02034,32.83000,708.81903,27.01934,27570,31.27037,56.80400,707.92859,-987.79291, 37.10938, 22.46094, 0.31298, -1.12977, 1.04580, 49.80000, -4.35000, 56.10000, 31.91143, 24,3.94977,0.07448,0.01520,0,20, 
366856, 0,27.26094,27562,32.98615,32.88200,708.72919,27.01840,27570,31.29329,56.57200,707.92859,-999.02338, 56.15234, 24.90234, -4.80916, 3.07634, -0.79389, 49.80000, -3.60000, 53.85000, 32.10312, 24,3.93096,0.07412,0.01513,0,20, 
368601, 0,27.26473,27561,32.98073,32.85600,708.81903,27.01840,27570,31.29904,56.15100,707.92859,-1000.48820, 56.15234, 17.08984, -3.57252, 2.76336, -0.29771, 49.20000, -3.00000, 54.45000, 32.05520, 24,3.91229,0.07377,0.01506,0,20, 
370349, 0,27.26631,27561,32.95780,32.85600,708.81903,27.01746,27570,31.32773,56.38000,707.92859,-988.28119, 39.06250, 31.25000, 0.73282, 1.47328, 0.51908, 48.75000, -3.00000, 55.20000, 31.76766, 24,3.89383,0.07342,0.01499,0,20, 
372093, 0,27.26915,27560,32.94075,32.85600,708.90887,27.01620,27570,31.35063,55.51400,707.83875,-978.02728, 57.12890, 28.32031, -2.58015, 4.14504, -1.79389, 49.05000, -3.90000, 54.60000, 32.10312, 24,3.87551,0.07308,0.01492,0,20, 
373842, 0,27.27231,27560,32.91797,32.90800,708.90887,27.01181,27571,31.32722,56.38000,707.83875,-995.60541, 42.96875, 41.50390, 0.00000, -0.84733, -1.23664, 49.80000, -3.60000, 54.90000, 32.05520, 24,3.85739,0.07274,0.01485,0,20, 
375587, 0,27.27547,27559,32.90672,32.77900,708.90887,27.00993,27571,31.27528,57.55100,707.92859,-994.62885, 62.98828, 38.57422, 3.54962, 0.93130, 2.25954, 50.40000, -3.60000, 55.35000, 32.29482, 24,3.83942,0.07240,0.01478,0,20, 
377335, 0,27.27831,27560,32.89545,32.77900,708.90887,27.00899,27571,31.21194,57.99300,707.83875,-985.35150, 48.33984, 24.90234, -0.05344, 1.83206, -1.35115, 48.75000, -4.20000, 55.20000, 32.10312, 24,3.82163,0.07206,0.01471,0,20, 
379080, 0,27.28211,27561,32.88427,32.77900,708.81903,27.00962,27570,31.17750,57.79100,707.83875,-1001.95310, 47.36328, 28.32031, 1.03053, 1.15267, -1.67176, 49.35000, -5.10000, 54.30000, 31.91143, 24,3.80399,0.07173,0.01464,0,20, 
380828, 0,27.28495,27560,32.86723,32.88200,708.81903,27.00993,27570,31.17753,56.95900,707.83875,-1005.37100, 67.38281, 21.97265, 0.61832, 0.64885, -0.67176, 49.35000, -5.10000, 54.30000, 32.00728, 24,3.78652,0.07140,0.01457,0,20, 
382573, 0,27.28874,27560,32.85605,32.77900,708.90887,27.00867,27570,31.16592,56.76500,707.83875,-991.69916, 43.45703, 30.76172, -2.88550, 1.00000, -0.49618, 49.35000, -4.35000, 53.85000, 32.24689, 24,3.76923,0.07107,0.01451,0,20, 
384321, 0,27.29127,27560,32.83322,32.83000,708.90887,27.00930,27570,31.16597,56.53300,707.83875,-991.21088, 26.85547, 34.66797, -2.16794, 3.82443, -3.09924, 49.35000, -4.65000, 54.30000, 32.05520, 24,3.75208,0.07075,0.01444,0,20, 
386064, 0,27.29474,27559,32.82201,32.77900,708.90887,27.00899,27571,31.18894,56.34200,707.83875,-985.83978, 42.48046, 21.97265, -4.46565, 2.67939, -1.25191, 50.25000, -3.75000, 53.40000, 32.19897, 24,3.73510,0.07043,0.01438,0,20, 
387810, 0,27.29917,27560,32.81089,32.70200,708.81903,27.00742,27570,31.19455,56.41800,707.83875,-1002.44130, 63.47656, 40.52734, 2.32061, 0.59542, 2.22901, 49.05000, -4.65000, 55.35000, 32.39066, 25,3.87317,0.07303,0.01461,0,20, 
389557, 0,27.30170,27561,32.79383,32.67600,708.90887,27.00711,27571,31.21177,56.30400,707.83875,-1006.34760, 62.01171, 43.45703, -2.24427, 4.09924, -0.93130, 49.95000, -3.75000, 54.75000, 32.10312, 25,3.85580,0.07271,0.01454,0,20, 
391303, 0,27.30422,27560,32.78830,32.67600,708.72919,27.00679,27571,31.21175,56.30400,707.74890,-994.14056, 36.13281, 20.01953, 3.79389, -0.27481, -0.51908, 50.25000, -3.75000, 56.25000, 32.19897, 25,3.83856,0.07238,0.01448,0,20, 
393051, 0,27.30675,27560,32.76548,32.62500,708.90887,27.00679,27571,31.23475,55.96200,707.83875,-989.25775, 57.61718, 23.92578, -2.40458, 2.98473, -2.17557, 50.40000, -3.15000, 54.60000, 32.24689, 26,3.97435,0.07494,0.01470,0,20, 
394796, 0,27.31054,27560,32.74854,32.52300,708.90887,27.00711,27571,31.22902,56.45600,707.92859,-1003.90620, 52.24609, 30.27344, 1.24427, 1.42748, 1.65649, 48.75000, -3.75000, 54.00000, 32.24689, 26,3.95673,0.07461,0.01463,0,20, 
396544, 0,27.31339,27560,32.73152,32.59900,708.90887,27.00711,27570,31.22902,56.38000,707.92859,-992.67572, 54.19921, 49.80468, 0.32061, 0.55725, -2.83969, 50.25000, -4.20000, 53.70000, 32.00728, 27,4.09081,0.07714,0.01485,0,20, 
398288, 0,27.31686,27559,32.72608,32.57400,708.90887,27.00554,27571,31.22888,56.22700,707.83875,-991.69916, 44.43359, 35.15625, -0.94656, 3.20611, -1.01527, 49.95000, -3.75000, 54.00000, 32.24689, 27,4.07285,0.07680,0.01478,0,20, 
400036, 0,27.31939,27559,32.69751,32.47300,708.99872,27.00366,27571,31.20571,56.95900,707.83875,-990.72260, 38.57422, 24.90234, -0.89313, 0.67939, -0.41985, 48.75000, -4.20000, 53.70000, 31.91143, 27,4.05505,0.07646,0.01472,0,20, 
401779, 0,27.32255,27558,32.68052,32.62500,708.99872,27.00303,27570,31.20566,57.11600,707.83875,-1017.08980, 49.80468, 41.50390, 0.51908, 0.68702, -0.96947, 47.70000, -2.55000, 55.20000, 32.10312, 27,4.03743,0.07613,0.01465,0,20, 
403522, 1,27.32824,27559,32.68105,32.59900,708.99872,27.00241,27570,31.19985,57.07700,707.92859,-1004.39450, 30.27344, 47.36328, -0.84733, 2.44275, -2.98473, 48.60000, -2.40000, 54.90000, 32.05520, 27,4.01992,0.07580,0.01459,0,20, 
405270, 0,27.33139,27559,32.66406,32.47300,708.99872,27.00146,27570,31.18827,56.76500,707.92859,-996.09369, 37.59766, 33.69141, -2.91603, 1.71756, 0.43511, 48.60000, -3.60000, 55.35000, 32.24689, 27,4.00261,0.07548,0.01453,0,20, 
407013, 0,27.33519,27558,32.64137,32.62500,708.99872,27.00115,27569,31.21124,56.61000,708.01581,-1008.30070, 44.92187, 48.33984, -2.62595, 2.96183, -0.71756, 49.50000, -4.20000, 56.25000, 32.19897, 27,3.98540,0.07515,0.01446,0,20, 
408761, 0,27.33803,27558,32.63012,32.54900,708.99872,27.00021,27569,31.23415,56.95900,708.01581,-995.60541, 48.33984, 26.85547, 0.26718, 1.01527, 0.51908, 51.45000, -3.75000, 54.75000, 32.24689, 28,4.11534,0.07760,0.01467,0,20, 
410506, 0,27.34246,27558,32.60749,32.47300,709.08594,27.00115,27570,31.26299,56.38000,707.92859,-1006.34760, 45.89843, 22.94922, 0.35878, 2.28244, -1.98473, 48.75000, -3.30000, 54.75000, 32.10312, 28,4.09780,0.07727,0.01460,0,20, 
412254, 0,27.34403,27558,32.59613,32.57400,708.99872,27.00241,27569,31.26886,55.92500,707.92859,-993.16400, 53.22265, 49.80468, -1.67176, 2.16031, -1.49618, 49.95000, -5.25000, 54.75000, 31.91143, 29,4.22618,0.07969,0.01480,0,20, 
413998, 0,27.34814,27559,32.58499,32.49800,708.90887,27.00052,27570,31.25719,56.64900,707.92859,-970.21478, 48.82812, 23.43750, -1.49618, 0.65649, 0.47328, 48.00000, -3.30000, 54.00000, 32.19897, 29,4.20832,0.07935,0.01474,0,20, 
415745, 0,27.35004,27559,32.57365,32.52300,709.08594,26.99676,27569,31.19935,57.63100,707.92859,-1004.39450, 49.80468, 26.85547, -0.86260, 4.00000, -1.25954, 48.75000, -3.00000, 54.00000, 32.10312, 29,4.19063,0.07902,0.01467,0,20, 
417490, 0,27.35320,27559,32.55092,32.44700,708.99872,26.99425,27570,31.12441,58.77200,707.92859,-1009.27730, 47.85156, 28.80859, 1.03053, 1.72519, -0.90840, 49.05000, -3.60000, 54.90000, 32.29482, 29,4.17309,0.07869,0.01461,0,20, 
419238, 0,27.35730,27559,32.55130,32.65000,708.90887,26.99362,27569,31.06116,59.14800,707.92859,-1009.76560, 39.06250, 30.76172, -3.16794, 4.24427, -2.95420, 48.75000, -4.95000, 54.45000, 32.19897, 29,4.15567,0.07836,0.01455,0,20, 
420983, 0,27.36172,27559,32.53444,32.49800,708.99872,26.99331,27570,31.00945,59.02200,707.92859,-992.67572, 59.57031, 25.87890, 2.69466, -0.24427, -0.51145, 50.40000, -1.20000, 55.35000, 32.29482, 29,4.13841,0.07804,0.01449,0,20, 
422728, 0,27.36457,27559,32.51744,32.47300,708.99872,26.99048,27569,30.99198,59.10600,707.92859,-986.81635, 41.01562, 28.80859, -2.32061, 4.93130, -1.45038, 49.50000, -4.20000, 55.50000, 32.19897, 29,4.12130,0.07771,0.01443,0,20, 
424474, 0,27.36678,27559,32.51189,32.44700,708.90887,26.99080,27570,30.95184,59.40200,707.92859,-974.60931, 26.36719, 33.69141, 1.97710, 1.50382, 5.90076, 49.35000, -4.35000, 54.60000, 32.24689, 29,4.10433,0.07739,0.01437,0,20, 
426219, 0,27.37057,27559,32.50073,32.52300,708.99872,26.98954,27570,30.92877,59.14800,707.83875,-1003.90620, 58.10546, 34.17969, 2.35878, 0.06870, -0.92366, 51.00000, -3.75000, 54.00000, 32.24689, 29,4.08748,0.07708,0.01431,0,20, 
427967, 0,27.37531,27559,32.48966,32.34700,708.99872,26.98954,27569,30.93451,58.68900,707.92859,-1012.20700, 66.89453, 38.57422, 1.98473, 3.13740, 0.41985, 50.25000, -3.30000, 53.40000, 32.29482, 29,4.07079,0.07676,0.01425,0,20, 
429712, 0,27.37942,27558,32.46703,32.57400,708.99872,26.98954,27570,30.96320,57.63100,707.83875,-984.37494, 45.41015, 29.78515, -3.06870, 3.86260, -2.92366, 47.85000, -3.60000, 55.35000, 31.91143, 29,4.05421,0.07645,0.01420,0,20, 
431460, 0,27.38384,27558,32.46169,32.34700,708.99872,26.98892,27570,31.00907,57.31300,707.92859,-1010.25380, 43.45703, 17.57813, 0.74809, 2.08397, -0.05344, 49.20000, -2.25000, 54.00000, 32.24689, 29,4.03780,0.07614,0.01414,0,20, 
433205, 0,27.38700,27559,32.43897,32.59900,708.99872,26.98766,27570,31.03767,57.07700,707.92859,-992.67572, 63.96484, 12.69531, -3.32061, 0.97710, -3.15267, 49.35000, -3.15000, 54.30000, 32.24689, 30,4.16017,0.07845,0.01432,0,20, 
434953, 0,27.39142,27558,32.42212,32.32200,709.08594,26.98641,27570,31.06627,56.45600,707.92859,-1001.95310, 46.87500, 25.39062, 1.50382, 1.38931, -1.06870, 48.75000, -4.20000, 54.75000, 32.24689, 30,4.14346,0.07813,0.01426,0,20, 
436699, 0,27.39459,27559,32.41666,32.47300,709.08594,26.98421,27570,31.07756,57.03800,708.01581,-979.98041, 28.80859, 26.85547, 0.29771, 2.03817, -0.35115, 49.05000, -2.85000, 53.10000, 32.24689, 30,4.12688,0.07782,0.01421,0,20, 
438444, 0,27.39806,27558,32.39973,32.29700,708.99872,26.98296,27569,31.08319,57.31300,708.01581,-1006.34760, 30.76172, 12.69531, -1.05344, 3.87786, -2.29771, 49.95000, -4.95000, 54.75000, 32.39066, 30,4.11041,0.07751,0.01415,0,20, 
440192, 0,27.40027,27558,32.38268,32.44700,708.99872,26.98265,27569,31.06593,57.67100,708.01581,-1003.41790, 61.52343, 21.97265, 1.01527, 1.83206, -0.56489, 48.30000, -3.60000, 53.55000, 32.29482, 30,4.09408,0.07720,0.01409,0,20, 
441936, 0,27.40596,27558,32.36021,32.27200,708.99872,26.98265,27569,31.04870,57.79100,707.92859,-1009.76560, 41.01562, 43.45703, -0.09160, 1.63359, 1.63359, 49.35000, -4.35000, 54.60000, 32.24689, 30,4.07788,0.07689,0.01404,0,20, 
443684, 0,27.40975,27559,32.36056,32.32200,708.99872,26.98233,27570,31.04868,57.99300,707.83875,-981.93353, 41.01562, 36.13281, -0.61832, 3.97710, -1.79389, 49.35000, -4.35000, 53.85000, 32.29482, 30,4.06181,0.07659,0.01398,0,20, 
445429, 0,27.41354,27558,32.34366,32.42200,708.99872,26.98265,27571,31.04870,57.63100,707.83875,-1009.76560, 31.25000, 25.39062, 0.98473, 1.37405, -2.32061, 49.35000, -3.15000, 54.60000, 32.00728, 31,4.18073,0.07883,0.01416,0,20, 
447175, 0,27.41923,27558,32.33269,32.37200,708.99872,26.98327,27570,31.06599,57.47100,707.92859,-1008.78900, 59.08203, 39.06250, -1.29008, 2.16794, -0.21374, 49.80000, -5.10000, 53.55000, 32.29482, 31,4.16440,0.07853,0.01410,0,20, 
448920, 0,27.42239,27559,32.32149,32.37200,708.99872,26.98265,27570,31.07168,57.47100,707.83875,-1009.27730, 50.29296, 32.22656, 1.96183, 3.48092, -0.19847, 49.20000, -4.20000, 54.00000, 32.43858, 31,4.14817,0.07822,0.01405,0,20, 
450668, 0,27.42492,27559,32.30447,32.22200,708.99872,26.97951,27570,31.07714,57.63100,707.92859,-992.67572, 37.10938, 24.41406, 1.93893, 1.45802, 0.95420, 49.05000, -2.40000, 54.90000, 32.24689, 31,4.13208,0.07792,0.01399,0,20, 
452413, 0,27.42713,27559,32.29319,32.37200,708.99872,26.97668,27570,31.02521,58.31800,707.92859,-995.60541, 50.78125, 28.32031, -3.43511, 3.01527, -1.15267, 49.05000, -3.15000, 54.60000, 32.10312, 31,4.11613,0.07762,0.01394,0,20, 
454161, 1,27.43060,27558,32.28776,32.12300,708.99872,26.97762,27569,30.97937,59.23200,707.92859,-997.07025, 56.64062, 33.20313, -1.75573, 2.96183, -0.99237, 48.75000, -3.30000, 54.00000, 32.39066, 33,4.36480,0.08231,0.01433,0,20, 
455906, 0,27.43281,27559,32.27072,32.42200,708.99872,26.97637,27570,30.96778,58.85500,707.92859,-997.55853, 52.24609, 32.71484, -0.09924, -1.14504, 2.41221, 50.40000, -4.65000, 55.35000, 32.24689, 33,4.34808,0.08199,0.01427,0,20, 
457651, 0,27.43724,27559,32.25389,32.39700,708.90887,26.97574,27570,30.94476,58.52300,707.92859,-989.74603, 44.92187, 33.20313, 0.63359, 1.00763, -2.45038, 49.35000, -3.90000, 54.60000, 32.10312, 33,4.33146,0.08168,0.01422,0,20, 
459399, 0,27.43913,27560,32.25407,32.14800,708.81903,26.97512,27570,30.94471,58.60600,707.92859,-992.18744, 44.92187, 22.46094, 0.01527, 3.03817, -4.37405, 50.40000, -3.15000, 53.55000, 32.10312, 33,4.31500,0.08137,0.01416,0,20, 
461142, 0,27.44324,27560,32.23146,32.07400,708.81903,26.97418,27570,30.95610,58.48200,707.83875,-993.65228, 49.80468, 22.94922, -2.67176, 5.67939, -2.53435, 50.40000, -4.65000, 55.35000, 32.29482, 33,4.29863,0.08106,0.01411,0,20, 
462889, 0,27.44767,27560,32.21464,32.22200,708.81903,26.97261,27570,30.94448,58.77200,707.92859,-1017.08980, 84.47265, 24.41406, -2.55725, 3.12214, 1.23664, 48.45000, -3.30000, 55.50000, 32.29482, 33,4.28241,0.08075,0.01406,0,20, 
464635, 0,27.45051,27560,32.20916,32.09800,708.90887,26.97261,27570,30.95022,58.89700,707.92859,-993.65228, 37.59766, 43.94531, -2.11450, 4.23664, -2.96947, 49.35000, -2.40000, 54.90000, 32.29482, 33,4.26629,0.08045,0.01400,0,20, 
466381, 0,27.45335,27560,32.19219,32.24700,708.90887,26.97449,27569,30.95039,58.44100,707.92859,-997.07025, 52.73437, 14.64844, -1.94656, 3.15267, -0.82443, 50.25000, -3.00000, 55.20000, 32.24689, 33,4.25031,0.08015,0.01395,0,20, 
468126, 0,27.45683,27561,32.16953,32.19700,708.81903,26.97355,27569,30.98475,57.91200,707.92859,-992.67572, 47.36328, 41.01562, 2.52672, 1.70992, 1.46565, 49.95000, -2.25000, 55.20000, 32.39066, 33,4.23442,0.07985,0.01390,0,20, 
469874, 1,27.46093,27560,32.16417,32.07400,708.90887,26.97198,27569,31.00756,57.59100,708.01581,-998.53510, 56.15234, 30.76172, 0.22901, 2.17557, -1.56489, 49.80000, -2.85000, 55.35000, 32.24689, 33,4.21867,0.07955,0.01385,0,20, 
471619, 0,27.46410,27559,32.14149,32.19700,708.90887,26.97135,27568,31.01899,57.95200,708.10565,-976.07416, 56.64062, 37.10938, -0.58779, 1.49618, 0.67939, 48.75000, -4.50000, 54.45000, 32.53443, 33,4.20306,0.07926,0.01380,0,20, 
473362, 0,27.46820,27559,32.14187,32.22200,708.99872,26.96885,27568,31.01303,58.11400,708.10565,-998.04681, 33.20313, 31.73828, -0.19847, 0.37405, 1.19084, 50.10000, -2.10000, 54.60000, 32.39066, 33,4.18752,0.07896,0.01375,0,20, 
475110, 0,27.46946,27558,32.11329,32.09800,709.08594,26.96853,27568,30.99578,58.27700,708.10565,-992.67572, 34.17969, 39.06250, -0.98473, 0.11450, 1.64885, 49.95000, -3.00000, 56.55000, 32.43858, 34,4.29856,0.08106,0.01390,0,20, 
476855, 0,27.47294,27557,32.11935,32.00000,709.08594,26.96885,27566,31.00729,58.23600,708.10565,-994.14056, 37.10938, 18.06641, -1.25191, 2.58779, 0.20611, 50.70000, -3.75000, 55.80000, 32.00728, 34,4.28278,0.08076,0.01385,0,20, 
478603, 1,27.47610,27558,32.10241,32.22200,709.08594,26.96790,27567,31.01869,57.67100,708.19543,-1009.27730, 44.92187, 35.64453, 0.65649, 0.25954, -0.06870, 49.50000, -4.50000, 55.20000, 32.39066, 34,4.26716,0.08046,0.01380,0,20, 
480348, 0,27.47926,27557,32.08549,32.17200,709.08594,26.96727,27566,31.03012,57.95200,708.19543,-1002.92960, 32.71484, 23.43750, -1.04580, 4.28244, 0.63359, 49.50000, -4.20000, 54.45000, 32.19897, 35,4.37666,0.08253,0.01395,0,20, 
482096, 0,27.48336,27557,32.07439,32.14800,709.08594,26.96665,27566,31.04155,57.79100,708.28265,-1020.01950, 43.45703, 23.92578, -2.77863, 2.43511, -0.33588, 48.00000, -2.55000, 54.00000, 32.43858, 35,4.36080,0.08223,0.01390,0,20, 
483842, 0,27.48590,27558,32.06314,31.92600,709.08594,26.96602,27566,31.04149,58.40000,708.19543,-1007.81240, 46.38671, 34.66797, 0.68702, -0.31298, 1.07634, 49.50000, -3.75000, 54.75000, 32.39066, 35,4.34503,0.08193,0.01385,0,20, 
485588, 0,27.48969,27557,32.03479,32.12300,709.08594,26.96602,27567,31.04149,57.83100,708.19543,-992.67572, 42.48046, 27.34375, 0.00763, 0.13740, -0.05344, 49.50000, -4.50000, 55.20000, 32.05520, 35,4.32940,0.08164,0.01380,0,20, 
487334, 0,27.49190,27557,32.02926,32.12300,709.17572,26.96602,27566,31.04149,57.87100,708.28265,-1002.92960, 29.78515, 18.55469, -1.10687, 2.06870, -1.61832, 49.80000, -2.85000, 55.35000, 32.39066, 35,4.31388,0.08134,0.01375,0,20, 
489081, 0,27.49569,27557,32.02961,32.07400,709.08594,26.96571,27566,31.04146,57.23400,708.28265,-980.46869, 42.96875, 22.46094, -1.90076, 0.90840, 1.20611, 49.35000, -2.40000, 56.40000, 32.10312, 35,4.29844,0.08105,0.01370,0,20, 
490827, 0,27.49917,27556,32.00125,31.90200,709.17572,26.96602,27566,31.07020,57.31300,708.28265,-980.46869, 64.45313, 25.87890, 3.02290, 0.54198, -0.06107, 49.80000, -4.35000, 54.60000, 32.39066, 35,4.28314,0.08077,0.01365,0,20, 
492572, 1,27.50232,27556,32.00153,32.14800,709.17572,26.96633,27565,31.07023,57.23400,708.28265,-986.32806, 55.17578, 41.50390, 1.74809, 0.09924, 1.13740, 49.20000, -3.30000, 56.25000, 32.43858, 35,4.26793,0.08048,0.01360,0,20, 
494320, 0,27.50485,27557,31.97882,32.02400,709.17572,26.96665,27566,31.09898,57.71100,708.28265,-982.91010, 52.73437, 32.71484, -1.30534, 4.13740, -4.48092, 50.25000, -3.30000, 55.80000, 32.05520, 35,4.25284,0.08019,0.01356,0,20, 
496065, 0,27.50991,27557,31.96208,32.04900,709.17572,26.96759,27566,31.09332,57.79100,708.28265,-993.16400, 45.89843, 34.17969, 1.09160, 1.62595, -2.32824, 49.95000, -2.55000, 54.75000, 32.43858, 35,4.23778,0.07991,0.01351,0,20, 
497820, 0,27.51338,27557,31.97386,32.04900,709.17572,26.96132,27566,31.11574,57.03800,708.19543,-990.23431, 54.19921, 52.73437, -0.90076, 3.98473, -2.66412, 48.75000, -2.25000, 55.20000, 32.43858, 35,4.22291,0.07963,0.01346,0,20, 
499565, 0,27.51623,27556,31.95692,31.82900,709.17572,26.96445,27567,31.13900,57.39200,708.19543,-991.21088, 31.25000, 24.41406, -0.63359, 4.06107, -2.64122, 48.00000, -3.30000, 54.45000, 32.43858, 35,4.20812,0.07935,0.01341,0,20, 
501313, 0,27.51939,27555,31.94001,32.04900,709.26556,26.96476,27566,31.16202,57.39200,708.19543,-1002.44130, 47.85156, 38.08594, -0.26718, 0.07634, 0.77099, 49.50000, -3.00000, 56.25000, 32.29482, 35,4.19345,0.07907,0.01337,0,20, 
503058, 1,27.52349,27555,31.92891,32.09800,709.26556,26.96539,27567,31.15632,57.47100,708.19543,-1003.41790, 46.87500, 43.45703, -2.03053, 3.02290, -1.33588, 49.05000, -4.35000, 54.90000, 32.10312, 36,4.29826,0.08105,0.01351,0,20, 
504806, 0,27.52729,27555,31.91206,32.00000,709.26556,26.96445,27567,31.15050,57.43200,708.19543,-1003.90620, 26.85547, 19.04297, -3.79389, 2.09924, -2.58015, 49.95000, -3.30000, 54.00000, 32.24689, 36,4.28340,0.08077,0.01346,0,20, 
506549, 0,27.52981,27557,31.91802,31.82900,709.08594,26.96665,27567,31.12770,57.15500,708.10565,-997.07025, 59.08203, 36.13281, -0.12214, -0.25954, 4.40458, 50.25000, -4.95000, 54.75000, 32.43858, 37,4.38723,0.08273,0.01360,0,20, 
508295, 0,27.53329,27558,31.89541,31.97500,709.08594,26.96633,27567,31.10469,56.99800,708.10565,-991.21088, 59.08203, 36.62109, -2.53435, 3.80916, -3.28244, 49.35000, -4.35000, 53.85000, 32.29482, 37,4.37213,0.08244,0.01355,0,20, 
510040, 0,27.53550,27557,31.88988,31.92600,709.17572,26.96539,27568,31.08738,57.19500,708.10565,-999.99994, 43.94531, 31.25000, 2.05344, 0.04580, 0.87023, 48.30000, -3.15000, 54.60000, 32.43858, 38,4.47491,0.08438,0.01369,0,20, 
511785, 1,27.53866,27558,31.87297,31.90200,709.08594,26.96383,27567,31.05853,57.79100,708.19543,-989.74603, 46.87500, 38.08594, -2.27481, 2.00000, -0.02290, 49.35000, -3.15000, 54.60000, 32.29482, 38,4.45961,0.08409,0.01364,0,20, 
513533, 0,27.54087,27558,31.87317,31.92600,709.08594,26.96194,27567,31.02390,58.35900,708.19543,-1004.88280, 46.38671, 27.34375, -3.33588, 3.53435, -1.02290, 50.40000, -2.85000, 53.55000, 32.39066, 38,4.44445,0.08381,0.01360,0,20, 
515276, 0,27.54435,27557,31.85630,31.90200,709.17572,26.96163,27566,31.00665,58.40000,708.19543,-994.14056, 43.94531, 25.87890, 1.87786, -0.22137, 0.39695, 49.35000, -3.90000, 54.90000, 32.39066, 38,4.42937,0.08352,0.01355,0,20, 
517024, 2,27.54719,27557,31.83364,31.73200,709.17572,26.96163,27567,30.98369,58.35900,708.19543,-1001.46480, 40.52734, 33.20313, 0.74046, 0.26718, 1.94656, 50.10000, -4.35000, 55.35000, 32.29482, 38,4.41440,0.08324,0.01350,0,20, 
518769, 0,27.55003,27557,31.82816,32.07400,709.17572,26.96132,27567,30.97218,57.75100,708.01581,-998.04681, 42.96875, 31.25000, -1.83206, 2.12977, -0.59542, 48.75000, -2.55000, 56.55000, 32.29482, 38,4.39951,0.08296,0.01346,0,20, 
520517, 0,27.55288,27557,31.81696,31.85300,709.08594,26.96038,27567,30.98932,58.11400,708.10565,-995.11713, 56.15234, 30.27344, 0.99237, 1.52672, -1.71756, 49.20000, -4.20000, 55.50000, 32.24689, 38,4.38474,0.08268,0.01341,0,20, 
522262, 0,27.55414,27558,31.80562,31.87800,709.08594,26.96132,27568,31.00089,58.44100,708.10565,-995.60541, 47.85156, 43.45703, -1.96183, 3.01527, -2.02290, 49.95000, -3.30000, 55.80000, 32.43858, 38,4.37008,0.08240,0.01337,0,20, 
524010, 0,27.55635,27558,31.79436,31.87800,709.08594,26.96069,27568,30.98935,58.60600,708.10565,-996.58197, 37.10938, 21.48437, -0.48092, 0.90076, -2.72519, 50.10000, -3.60000, 53.85000, 32.39066, 38,4.35548,0.08213,0.01332,0,20, 
525755, 0,27.55825,27558,31.78881,31.87800,709.08594,26.96100,27567,30.97789,58.56500,708.19543,-998.53510, 56.64062, 24.41406, -1.19847, 1.76336, 3.00000, 48.45000, -3.30000, 55.80000, 32.39066, 38,4.34101,0.08186,0.01328,0,20, 
527501, 0,27.56109,27558,31.77188,31.95100,709.08594,26.96069,27567,30.99508,58.27700,708.10565,-1014.16010, 59.08203, 18.55469, -2.38931, 3.72519, -1.90076, 49.95000, -4.20000, 56.25000, 32.29482, 39,4.44050,0.08373,0.01341,0,20, 
529247, 0,27.56236,27558,31.76627,31.87800,709.08594,26.96100,27568,30.98363,58.98000,708.10565,-1008.30070, 42.48046, 39.06250, -1.00000, -0.19084, -2.93130, 49.50000, -3.30000, 55.80000, 32.24689, 39,4.42584,0.08346,0.01336,0,20, 
530992, 0,27.56552,27557,31.74938,31.78100,709.17572,26.95912,27568,30.95477,59.44400,708.10565,-993.16400, 64.94141, 28.80859, 0.53435, 0.06870, -0.86260, 49.35000, -3.15000, 54.60000, 32.29482, 39,4.41126,0.08318,0.01332,0,20, 
532740, 0,27.56773,27557,31.73240,31.73200,709.08594,26.95567,27568,30.93725,59.91500,708.10565,-1011.23040, 49.80468, 31.73828, -3.00763, 4.29771, -3.74046, 48.75000, -3.75000, 54.00000, 32.39066, 39,4.39679,0.08291,0.01328,0,20, 
534484, 0,27.57057,27557,31.73265,31.80500,709.08594,26.95410,27568,30.91990,59.87200,708.01581,-992.67572, 49.31640, 31.73828, -1.90076, 1.79389, -3.39695, 48.75000, -3.30000, 54.45000, 32.43858, 39,4.38240,0.08264,0.01323,0,20, 
536232, 0,27.57341,27557,31.71001,31.85300,709.17572,26.95410,27568,30.91416,59.78600,708.10565,-966.30853, 28.32031, 31.25000, -0.17557, 3.58779, -1.41221, 49.35000, -3.15000, 54.90000, 32.29482, 39,4.36812,0.08237,0.01319,0,20, 
537977, 0,27.57531,27557,31.70446,31.78100,709.26556,26.95379,27567,30.91987,59.70000,708.10565,-983.88666, 44.92187, 38.57422, 1.59542, 0.22901, -1.65649, 49.05000, -3.15000, 54.90000, 32.53443, 39,4.35393,0.08210,0.01315,0,20, 
539723, 0,27.57784,27556,31.68751,31.61200,709.26556,26.95316,27567,30.93703,59.52900,708.19543,-1003.41790, 38.57422, 38.57422, 1.73282, 0.00000, -0.52672, 48.45000, -3.30000, 54.75000, 32.29482, 39,4.33983,0.08183,0.01310,0,20, 
541468, 1,27.57973,27557,31.68768,31.85300,709.17572,26.95254,27567,30.93697,58.89700,708.28265,-1013.67180, 50.78125, 33.20313, -5.33588, 0.19084, -2.64885, 48.45000, -2.25000, 55.20000, 32.24689, 39,4.32584,0.08157,0.01306,0,20, 
543216, 0,27.58226,27557,31.67074,31.82900,709.17572,26.95034,27566,30.93104,58.93800,708.28265,-997.55853, 41.01562, 34.66797, -0.19084, 3.00763, -2.79389, 49.35000, -4.35000, 54.30000, 32.29482, 39,4.31190,0.08131,0.01302,0,20, 
544961, 0,27.58479,27556,31.65952,31.68400,709.17572,26.94909,27566,30.94241,59.10600,708.28265,-998.04681, 44.92187, 23.43750, -0.12214, 3.40458, -1.38168, 49.80000, -2.85000, 54.90000, 32.39066, 39,4.29810,0.08105,0.01298,0,20, 
546705, 0,27.58890,27557,31.64272,31.75700,709.17572,26.94971,27566,30.93672,58.52300,708.19543,-1006.34760, 56.64062, 30.27344, 0.68702, 1.51908, -1.87023, 48.60000, -3.15000, 56.10000, 32.10312, 39,4.28434,0.08079,0.01294,0,20, 
548452, 1,27.58826,27556,31.63695,31.73200,709.17572,26.94720,27566,30.94224,58.44100,708.28265,-979.49213, 19.53125, 27.83203, -3.95420, 1.95420, 1.03053, 50.25000, -3.30000, 55.80000, 32.39066, 39,4.27070,0.08053,0.01290,0,20, 
550198, 0,27.59174,27557,31.63726,31.66000,709.26556,26.94689,27565,30.96517,58.03300,708.37250,-998.04681, 40.03906, 32.22656, -2.29008, 3.25191, -1.66412, 48.60000, -2.85000, 53.55000, 32.24689, 39,4.25712,0.08027,0.01285,0,20, 
551946, 0,27.59521,27555,31.62041,31.70800,709.26556,26.94501,27565,30.98222,58.19600,708.28265,-1013.18350, 53.22265, 29.29687, -1.06870, 0.57252, -2.63359, 49.05000, -2.85000, 55.65000, 32.24689, 39,4.24364,0.08002,0.01281,0,20, 
553691, 0,27.59837,27555,31.60925,31.73200,709.35278,26.94595,27566,30.99952,57.95200,708.28265,-1011.23040, 29.78515, 25.87890, -2.61069, 1.76336, -0.74046, 48.60000, -3.60000, 54.60000, 32.43858, 39,4.23024,0.07977,0.01277,0,20, 
555439, 0,27.60122,27555,31.60378,31.61200,709.35278,26.94626,27565,31.02825,57.47100,708.37250,-1001.46480, 51.26953, 25.87890, -2.25954, 1.75573, -3.33588, 49.20000, -4.95000, 53.70000, 32.43858, 39,4.21695,0.07952,0.01273,0,20, 
557181, 0,27.60185,27555,31.59240,31.70800,709.26556,26.94657,27565,31.05125,57.35200,708.37250,-989.74603, 39.55078, 26.85547, -0.47328, 2.79389, -2.23664, 48.75000, -5.25000, 55.20000, 32.24689, 39,4.20372,0.07927,0.01269,0,20, 
558927, 0,27.60564,27555,31.56986,31.66000,709.35278,26.94689,27565,31.06276,57.31300,708.37250,-1005.37100, 60.05859, 31.25000, 1.12214, -0.95420, 0.38168, 49.50000, -3.00000, 55.20000, 32.58235, 40,4.29803,0.08105,0.01281,0,20, 
560673, 0,27.60785,27555,31.57578,31.61200,709.26556,26.94595,27565,31.03971,57.75100,708.28265,-993.16400, 57.12890, 37.59766, 1.80153, 0.05344, 1.37405, 49.05000, -3.90000, 52.80000, 32.39066, 40,4.28464,0.08079,0.01277,0,20, 
562418, 0,27.60975,27556,31.56451,31.58800,709.17572,26.94595,27566,31.01674,58.35900,708.28265,-996.09369, 60.05859, 27.34375, 2.86260, -0.19084, -0.16031, 50.25000, -3.30000, 55.20000, 32.24689, 40,4.27131,0.08054,0.01273,0,20, 
564166, 0,27.61227,27556,31.53614,31.61200,709.26556,26.94626,27566,30.99955,58.60600,708.19543,-999.02338, 32.71484, 42.48046, 1.37405, -0.23664, 2.22137, 51.60000, -3.60000, 55.35000, 32.29482, 40,4.25808,0.08029,0.01270,0,20, 
565911, 0,27.61417,27555,31.54775,31.61200,709.26556,26.94532,27566,30.98799,58.35900,708.28265,-980.46869, 58.10546, 32.22656, 1.40458, -0.05344, -0.70229, 49.05000, -3.60000, 54.30000, 32.58235, 40,4.24493,0.08004,0.01266,0,20, 
567657, 0,27.61765,27555,31.52519,31.58800,709.26556,26.94532,27566,30.98799,58.11400,708.19543,-1002.44130, 52.73437, 24.90234, 2.01527, -1.32061, -1.61832, 48.75000, -4.95000, 54.45000, 32.39066, 40,4.23189,0.07980,0.01262,0,20, 
569400, 0,27.62112,27556,31.53122,31.54100,709.26556,26.94657,27567,30.99384,57.99300,708.10565,-989.25775, 48.82812, 27.83203, 0.99237, 0.51908, -1.24427, 50.25000, -3.75000, 55.20000, 32.43858, 41,4.32437,0.08154,0.01273,0,20, 
571146, 0,27.62428,27556,31.50292,31.51700,709.26556,26.94595,27568,31.01674,57.99300,708.19543,-1000.97650, 38.57422, 33.20313, -2.21374, 3.65649, 0.06107, 49.80000, -3.90000, 53.10000, 32.29482, 41,4.31115,0.08129,0.01270,0,20, 
572891, 0,27.62744,27557,31.49748,31.54100,709.17572,26.94469,27566,31.01663,58.48200,708.19543,-1015.62490, 47.85156, 14.16016, -0.38931, 1.32061, 1.96183, 51.15000, -3.90000, 55.35000, 32.58235, 41,4.29799,0.08105,0.01266,0,20, 
574639, 0,27.62934,27557,31.47479,31.49300,709.08594,26.94469,27566,31.00515,58.89700,708.19543,-995.11713, 46.87500, 23.43750, 4.13740, -0.33588, -2.43511, 47.10000, -4.35000, 54.60000, 32.39066, 42,4.38943,0.08277,0.01277,0,20, 
576385, 0,27.63218,27557,31.47504,31.56500,709.17572,26.94501,27567,30.99370,58.93800,708.19543,-995.60541, 69.82422, 38.57422, -2.03053, 2.36641, -3.80153, 49.35000, -5.40000, 54.60000, 32.24689, 43,4.48033,0.08448,0.01288,0,20, 
578132, 0,27.63534,27557,31.46961,31.46900,709.17572,26.94375,27567,31.00507,58.40000,708.19543,-1010.74210, 48.82812, 25.39062, 1.53435, 1.10687, 1.28244, 48.45000, -5.25000, 54.75000, 32.39066, 43,4.46677,0.08423,0.01284,0,20, 
579877, 0,27.63755,27557,31.44695,31.44600,709.17572,26.94375,27566,30.97637,57.87100,708.19543,-999.02338, 51.75781, 31.25000, -2.65649, 2.69466, -0.60305, 48.75000, -4.20000, 55.20000, 32.39066, 43,4.45332,0.08397,0.01281,0,20, 
581620, 0,27.63913,27556,31.45852,31.54100,709.26556,26.94438,27566,31.00512,57.83100,708.28265,-995.11713, 48.33984, 43.45703, -3.06107, 4.58779, -2.62595, 49.35000, -3.60000, 53.85000, 32.58235, 43,4.43994,0.08372,0.01277,0,20, 
583366, 0,27.64071,27556,31.43008,31.54100,709.26556,26.94375,27566,30.97063,58.23600,708.19543,-989.74603, 31.73828, 12.69531, -0.14504, 0.41221, 2.11450, 49.95000, -4.20000, 55.20000, 32.43858, 43,4.42665,0.08347,0.01273,0,20, 
585111, 0,27.64419,27556,31.43040,31.44600,709.26556,26.94344,27566,30.97634,58.44100,708.19543,-1005.37100, 56.64062, 24.90234, -0.70992, 0.85496, -2.65649, 49.80000, -4.35000, 55.35000, 32.43858, 43,4.41342,0.08322,0.01269,0,20, 
586857, 0,27.64608,27556,31.41343,31.49300,709.35278,26.94312,27567,30.97631,58.31800,708.19543,-995.11713, 41.99218, 34.17969, 2.21374, 1.89313, -1.46565, 50.10000, -2.10000, 54.60000, 32.58235, 43,4.40029,0.08297,0.01265,0,20, 
588602, 1,27.64830,27554,31.40791,31.56500,709.35278,26.94312,27566,30.97631,57.87100,708.28265,-1018.55460, 55.66406, 35.64453, -3.81679, 3.90840, -1.00763, 49.50000, -4.20000, 54.45000, 32.43858, 43,4.38721,0.08273,0.01262,0,20, 
590350, 0,27.65051,27554,31.40811,31.44600,709.44263,26.94375,27565,30.98211,57.87100,708.37250,-999.99994, 24.41406, 25.39062, 0.83969, 0.74046, 0.34351, 48.45000, -3.75000, 56.55000, 32.58235, 43,4.37423,0.08248,0.01258,0,20, 
592096, 0,27.65303,27554,31.39119,31.42200,709.53247,26.94532,27565,30.98799,57.83100,708.37250,-1004.39450, 34.17969, 39.55078, -0.37405, 1.76336, -1.23664, 50.10000, -3.90000, 54.90000, 32.19897, 43,4.36131,0.08224,0.01254,0,20, 
593843, 0,27.65461,27553,31.37990,31.35100,709.44263,26.94501,27565,31.00518,57.71100,708.37250,-989.74603, 31.25000, 33.20313, -3.00763, 3.00000, -1.41221, 49.50000, -4.20000, 56.55000, 32.43858, 43,4.34849,0.08200,0.01250,0,20, 
595589, 0,27.65619,27553,31.36862,31.39800,709.53247,26.94595,27566,30.98804,57.71100,708.19543,-973.14447, 35.15625, 21.48437, -0.81679, 1.09924, -2.81679, 49.50000, -4.95000, 53.70000, 32.58235, 43,4.33574,0.08176,0.01247,0,20, 
597335, 0,27.65777,27553,31.36877,31.32800,709.53247,26.94595,27565,30.99378,57.75100,708.28265,-998.04681, 30.76172, 35.15625, -1.25954, 2.71756, -4.72519, 49.05000, -3.90000, 53.85000, 32.58235, 43,4.32306,0.08152,0.01243,0,20, 
599077, 0,27.66093,27553,31.35191,31.32800,709.53247,26.94814,27565,30.99971,57.91200,708.28265,-1007.81240, 40.52734, 47.36328, 2.85496, -0.49618, 1.83206, 48.75000, -4.20000, 54.45000, 32.58235, 43,4.31047,0.08128,0.01240,0,20, 
600820, 0,27.66472,27554,31.32941,31.44600,709.53247,26.94814,27565,31.00546,57.87100,708.37250,-1001.95310, 42.96875, 44.43359, 0.97710, 0.54198, 1.88550, 50.25000, -3.00000, 55.50000, 32.43858, 43,4.29793,0.08104,0.01236,0,20, 
602566, 0,27.66599,27553,31.34665,31.42200,709.53247,26.94783,27565,31.01691,57.55100,708.37250,-995.60541, 57.12890, 31.73828, 1.84733, -0.51145, 2.11450, 50.10000, -2.85000, 54.90000, 32.58235, 43,4.28547,0.08081,0.01232,0,20, 
604311, 0,27.66852,27554,31.31261,31.49300,709.44263,26.94720,27564,31.01111,57.63100,708.37250,-1015.62490, 50.29296, 1.95312, -0.25954, 2.54198, -3.25191, 49.50000, -2.25000, 54.75000, 32.63028, 43,4.27307,0.08058,0.01229,0,20, 
606059, 0,27.66978,27554,31.30131,31.16400,709.44263,26.94783,27564,30.99969,57.63100,708.37250,-977.05072, 38.08594, 25.39062, -2.27481, 3.37405, 1.41985, 51.45000, -4.95000, 55.20000, 32.53443, 43,4.26075,0.08034,0.01225,0,20, 
607805, 0,27.67420,27554,31.31884,31.37500,709.35278,26.94657,27565,31.00532,57.79100,708.37250,-995.60541, 55.17578, 23.92578, 2.16031, 1.96183, 0.45038, 49.95000, -4.95000, 54.45000, 32.72612, 45,4.44609,0.08384,0.01250,0,20, 
609552, 0,27.67673,27554,31.29051,31.39800,709.44263,26.94595,27565,31.00526,57.71100,708.37250,-1001.46480, 49.31640, 26.36719, -2.58779, 3.17557, 0.92366, 50.10000, -3.15000, 54.90000, 32.43858, 45,4.43335,0.08360,0.01246,0,20, 
611298, 0,27.67894,27555,31.29071,31.25700,709.44263,26.94689,27565,30.99387,57.47100,708.37250,-993.16400, 65.91797, 21.48437, -0.56489, 1.83206, 0.83969, 48.45000, -4.20000, 55.20000, 32.29482, 46,4.51892,0.08521,0.01256,0,20, 
613046, 0,27.68052,27553,31.28514,31.35100,709.53247,26.94783,27565,30.99395,57.47100,708.28265,-1001.46480, 58.59375, 26.85547, 2.58015, 0.70992, 2.12977, 49.95000, -5.25000, 54.45000, 32.58235, 46,4.50603,0.08497,0.01253,0,20, 
614791, 0,27.68210,27553,31.26816,31.35100,709.53247,26.94846,27566,31.02271,57.11600,708.28265,-994.14056, 64.94141, 32.71484, 1.67176, -1.58779, -1.37405, 50.40000, -4.35000, 56.85000, 32.43858, 46,4.49324,0.08473,0.01249,0,20, 
616534, 1,27.68526,27553,31.25702,31.30400,709.53247,26.94720,27565,31.01111,57.23400,708.37250,-1004.88280, 51.75781, 29.29687, 0.22901, -0.57252, 0.14504, 49.95000, -4.95000, 54.75000, 32.24689, 46,4.48049,0.08449,0.01246,0,20, 
618281, 0,27.68748,27553,31.24580,31.25700,709.53247,26.94752,27564,31.00540,57.07700,708.46234,-1007.81240, 59.08203, 31.25000, -2.15267, 2.78626, -3.54962, 49.80000, -3.60000, 54.30000, 32.63028, 46,4.46783,0.08425,0.01242,0,20, 
620026, 0,27.69127,27553,31.24043,31.39800,709.53247,26.94814,27564,31.00546,56.88100,708.37250,-1002.44130, 68.84766, 35.64453, 0.09160, -0.94656, 2.71756, 50.25000, -3.30000, 55.50000, 32.53443, 46,4.45526,0.08401,0.01239,0,20, 
621771, 0,27.69442,27553,31.23501,31.21100,709.53247,26.94909,27564,30.99406,56.95900,708.37250,-983.88666, 48.33984, 33.20313, -1.58015, 2.44275, -1.16794, 48.75000, -3.75000, 53.70000, 32.43858, 46,4.44274,0.08377,0.01235,0,20, 
623516, 0,27.69663,27553,31.21808,31.25700,709.53247,26.95003,27565,31.00562,57.39200,708.37250,-1000.48820, 38.08594, 25.39062, -1.34351, 4.01527, -2.40458, 49.80000, -5.10000, 54.30000, 32.58235, 46,4.43028,0.08354,0.01232,0,20, 
625264, 0,27.69853,27553,31.21254,31.35100,709.62231,26.95034,27564,31.00565,57.39200,708.37250,-1009.76560, 47.36328, 33.20313, -1.13740, 3.23664, -1.47328, 49.80000, -2.40000, 55.65000, 32.63028, 46,4.41789,0.08331,0.01228,0,20, 
627009, 0,27.70169,27552,31.20141,31.28100,709.62231,26.95097,27564,31.00571,57.71100,708.46234,-1011.23040, 38.57422, 29.29687, -2.99237, 2.90840, -2.02290, 49.50000, -4.50000, 55.20000, 32.58235, 46,4.40557,0.08307,0.01225,0,20, 
628757, 0,27.70485,27552,31.20741,31.11800,709.62231,26.95065,27563,30.99994,57.55100,708.46234,-990.23431, 47.36328, 41.01562, 1.19847, -0.40458, -2.02290, 49.80000, -4.35000, 54.30000, 32.53443, 46,4.39333,0.08284,0.01221,0,20, 
630502, 0,27.70643,27552,31.18472,31.23400,709.70947,26.95034,27564,30.99417,57.35200,708.55219,-990.23431, 40.03906, 24.41406, -2.77099, 2.42748, -3.35878, 49.35000, -3.60000, 54.90000, 32.24689, 47,4.47640,0.08441,0.01231,0,20, 
632250, 0,27.70832,27551,31.17348,31.18700,709.62231,26.95097,27562,30.99423,57.39200,708.55219,-995.60541, 62.98828, 16.60156, 0.37405, 4.07634, -1.32824, 49.95000, -2.55000, 55.20000, 32.72612, 47,4.46402,0.08418,0.01228,0,20, 
633995, 0,27.71022,27552,31.17365,31.21100,709.62231,26.95128,27562,30.98277,57.23400,708.64203,-987.79291, 73.73047, 10.25391, -0.81679, -0.47328, 2.58779, 50.10000, -3.90000, 54.60000, 32.43858, 47,4.45173,0.08394,0.01224,0,20, 
635740, 0,27.71370,27552,31.16255,31.18700,709.70947,26.95159,27561,30.98854,56.84300,708.64203,-1001.46480, 65.91797, 33.20313, -1.96183, 5.15267, 1.54198, 50.25000, -3.00000, 54.00000, 32.43858, 47,4.43948,0.08371,0.01221,0,20, 
637488, 0,27.71338,27551,31.15111,31.11800,709.70947,26.95316,27562,30.97720,56.99800,708.64203,-988.28119, 48.33984, 20.99609, 1.82443, 2.29008, 4.58779, 49.50000, -2.55000, 54.75000, 32.58235, 47,4.42731,0.08348,0.01218,0,20, 
639234, 0,27.71686,27552,31.14001,31.14100,709.62231,26.95285,27561,30.99439,56.99800,708.64203,-1010.74210, 43.94531, 28.80859, -0.15267, 0.55725, -0.29008, 49.80000, -3.90000, 54.90000, 32.58235, 48,4.50914,0.08503,0.01227,0,20, 
640980, 0,27.71875,27551,31.14018,31.09400,709.70947,26.95410,27563,30.97154,57.11600,708.55219,-979.98041, 64.94141, 31.25000, -2.53435, 4.95420, -1.36641, 48.00000, -4.95000, 55.20000, 32.39066, 48,4.49685,0.08480,0.01224,0,20, 
642726, 0,27.72286,27552,31.11773,31.07100,709.62231,26.95316,27563,30.98294,57.15500,708.55219,-1003.41790, 55.17578, 4.39453, -1.58779, 2.77863, 1.99237, 48.75000, -4.20000, 54.45000, 32.39066, 48,4.48461,0.08456,0.01221,0,20, 
644474, 0,27.72412,27552,31.12355,31.09400,709.62231,26.95254,27563,30.97140,56.92000,708.46234,-999.51166, 40.52734, 36.62109, -2.69466, 0.38168, -1.15267, 49.20000, -3.30000, 56.55000, 32.58235, 48,4.47245,0.08433,0.01217,0,20, 
646219, 0,27.72539,27551,31.10655,31.09400,709.62231,26.95065,27564,30.95976,56.99800,708.46234,-1008.30070, 40.52734, 18.55469, 0.32824, 1.50382, -2.38931, 47.85000, -3.60000, 56.10000, 32.24689, 48,4.46037,0.08411,0.01214,0,20, 
647965, 1,27.72855,27552,31.09543,31.04800,709.62231,26.95065,27564,30.95976,57.15500,708.46234,-993.65228, 68.84766, 31.73828, 2.36641, 0.54198, 2.03817, 48.60000, -4.35000, 55.35000, 32.43858, 48,4.44834,0.08388,0.01211,0,20, 
649710, 0,27.72950,27553,31.08981,31.16400,709.53247,26.95003,27563,30.95971,57.07700,708.46234,-990.72260, 50.29296, 40.03906, 1.30534, -0.83206, -0.48092, 48.45000, -4.50000, 54.45000, 32.29482, 48,4.43638,0.08365,0.01207,0,20, 
651455, 0,27.73107,27552,31.08425,31.04800,709.62231,26.95003,27563,30.93675,57.47100,708.55219,-1007.32420, 39.55078, 24.90234, 1.22901, 0.35878, 1.83969, 50.40000, -2.85000, 54.30000, 32.63028, 48,4.42447,0.08343,0.01204,0,20, 
653203, 0,27.73329,27551,31.07874,31.09400,709.62231,26.95034,27563,30.93678,56.99800,708.46234,-999.99994, 40.03906, 36.13281, 0.25954, -1.17557, 1.01527, 49.80000, -3.90000, 54.30000, 32.58235, 49,4.50457,0.08494,0.01213,0,20, 
654948, 0,27.73486,27552,31.05608,31.00200,709.70947,26.95128,27563,30.92539,57.47100,708.55219,-991.21088, 41.99218, 27.34375, 1.62595, 0.42748, 2.00000, 49.20000, -4.95000, 55.50000, 32.29482, 49,4.49253,0.08471,0.01210,0,20, 
656696, 0,27.73613,27552,31.05618,31.00200,709.62231,26.95159,27563,30.93115,57.39200,708.55219,-987.79291, 48.82812, 45.41015, -1.09160, 0.32061, 0.21374, 49.95000, -4.50000, 54.75000, 32.43858, 49,4.48061,0.08449,0.01207,0,20, 
658439, 0,27.73897,27552,31.04504,31.11800,709.62231,26.95254,27563,30.91402,57.27300,708.55219,-999.02338, 35.64453, 30.76172, 0.47328, 2.67176, 0.00763, 47.55000, -4.65000, 54.60000, 32.39066, 49,4.46870,0.08426,0.01204,0,20, 
660187, 0,27.74118,27551,31.04524,30.93300,709.70947,26.95316,27562,30.92555,57.51100,708.46234,-1000.97650, 62.01171, 31.25000, 0.22901, 1.90840, 2.02290, 49.20000, -5.70000, 54.75000, 32.77404, 49,4.45688,0.08404,0.01201,0,20, 
661933, 0,27.74371,27552,31.02836,31.16400,709.62231,26.95222,27563,30.92547,57.23400,708.55219,-1002.92960, 22.46094, 31.25000, 1.24427, -0.89313, 0.35878, 47.70000, -4.20000, 54.75000, 32.43858, 49,4.44510,0.08382,0.01197,0,20, 
663681, 0,27.74466,27551,31.01705,30.97900,709.62231,26.95222,27563,30.93121,57.51100,708.46234,-995.11713, 41.99218, 22.46094, -0.32061, 1.35878, -0.13740, 49.35000, -3.15000, 53.85000, 32.58235, 50,4.52388,0.08530,0.01206,0,20, 
665425, 2,27.74624,27551,31.00009,31.00200,709.70947,26.95128,27563,30.93112,57.47100,708.55219,-1005.85930, 50.78125, 24.90234, 0.74046, 1.51145, 2.11450, 50.10000, -4.35000, 56.10000, 32.72612, 50,4.51201,0.08508,0.01203,0,20, 
667173, 0,27.74877,27552,31.00032,31.00200,709.62231,26.95065,27563,30.93681,57.47100,708.64203,-986.81635, 52.24609, 25.87890, 1.15267, -0.04580, -1.08397, 49.20000, -4.20000, 53.70000, 32.53443, 50,4.50018,0.08486,0.01200,0,20, 
668918, 1,27.75193,27552,30.98919,30.97900,709.62231,26.94909,27562,30.91946,57.79100,708.55219,-988.76947, 51.75781, 19.04297, -2.37405, 1.47328, 0.04580, 48.60000, -3.90000, 53.85000, 32.63028, 50,4.48842,0.08464,0.01197,0,20, 
670663, 0,27.75382,27552,30.97797,31.00200,709.62231,26.94689,27562,30.90779,57.91200,708.55219,-987.79291, 54.68750, 37.10938, 0.96947, -0.13740, -1.16031, 49.80000, -4.35000, 55.35000, 32.53443, 50,4.47672,0.08442,0.01194,0,20, 
672411, 1,27.75446,27551,30.97803,30.91000,709.70947,26.94375,27562,30.88457,59.06400,708.55219,-998.04681, 59.08203, 34.17969, -2.56489, 1.51908, 0.70992, 48.45000, -4.50000, 55.20000, 32.24689, 50,4.46510,0.08420,0.01191,0,20, 
674154, 0,27.75666,27551,30.96683,30.93300,709.79932,26.94312,27562,30.87877,59.52900,708.55219,-994.14056, 41.99218, 33.69141, -1.68702, 1.77099, -3.01527, 48.75000, -4.20000, 56.55000, 32.43858, 51,4.54260,0.08566,0.01199,0,20, 
675900, 0,27.75793,27550,30.96124,30.97900,709.79932,26.94312,27562,30.86730,59.23200,708.64203,-993.16400, 54.68750, 32.71484, -2.30534, 1.90840, 2.19084, 48.45000, -3.75000, 55.50000, 32.63028, 51,4.53086,0.08544,0.01196,0,20, 
677645, 0,27.75983,27550,30.94431,30.95600,709.79932,26.94312,27562,30.88451,58.56500,708.64203,-993.16400, 50.78125, 9.27734, 3.80916, 0.06870, -1.50382, 48.30000, -4.35000, 55.65000, 32.63028, 51,4.51917,0.08522,0.01193,0,20, 
679393, 0,27.76267,27550,30.95596,30.97900,709.70947,26.94312,27560,30.91893,58.44100,708.72919,-1006.83590, 54.68750, 44.43359, 1.76336, 1.28244, 0.05344, 51.15000, -4.35000, 54.60000, 32.72612, 52,4.59594,0.08666,0.01202,0,20, 
681139, 0,27.76646,27550,30.93921,30.88700,709.79932,26.94250,27561,30.91887,58.23600,708.64203,-996.58197, 35.15625, 30.76172, -0.58015, -2.00763, 0.22137, 50.40000, -3.90000, 56.10000, 32.53443, 52,4.58414,0.08644,0.01199,0,20, 
682886, 0,27.76836,27550,30.93368,31.00200,709.88916,26.94062,27561,30.93018,58.77200,708.64203,-1008.30070, 32.22656, 32.22656, 0.70992, 0.65649, 1.45802, 49.50000, -3.00000, 53.70000, 32.77404, 52,4.57241,0.08622,0.01196,0,20, 
684632, 0,27.77025,27550,30.92815,30.88700,709.79932,26.94030,27561,30.93589,59.35900,708.64203,-1000.48820, 49.31640, 22.94922, -1.93130, 5.37405, -1.93893, 49.95000, -4.20000, 55.20000, 32.72612, 52,4.56074,0.08600,0.01193,0,20, 
686376, 1,27.77151,27550,30.91117,30.88700,709.79932,26.93999,27561,30.94160,58.60600,708.72919,-994.62885, 25.87890, 21.48437, -2.87786, 2.35115, -2.25191, 49.35000, -3.60000, 54.30000, 32.72612, 52,4.54912,0.08578,0.01190,0,20, 
688124, 0,27.77341,27549,30.91134,31.07100,709.88916,26.94062,27560,30.94740,58.85500,708.81903,-995.11713, 45.89843, 40.52734, -3.32824, 2.77863, -3.19847, 48.00000, -3.30000, 54.00000, 32.63028, 53,4.62485,0.08721,0.01198,0,20, 
689867, 0,27.77594,27549,30.90018,30.93300,709.97900,26.94156,27560,30.95322,58.48200,708.72919,-1013.18350, 29.29687, 27.34375, -1.11450, 4.18321, -5.19084, 48.60000, -4.65000, 54.60000, 32.58235, 53,4.61313,0.08699,0.01195,0,20, 
691613, 0,27.77910,27548,30.90046,30.91000,709.97900,26.94093,27561,30.97612,57.91200,708.72919,-995.11713, 49.31640, 41.50390, -3.23664, 1.87023, -1.57252, 49.35000, -3.60000, 55.35000, 32.63028, 53,4.60149,0.08677,0.01192,0,20, 
693358, 0,27.78068,27548,30.88921,30.86500,709.97900,26.94062,27560,31.00479,57.87100,708.72919,-994.14056, 46.38671, 29.78515, 1.86260, 1.74046, 2.02290, 49.05000, -2.40000, 56.40000, 32.53443, 53,4.58988,0.08655,0.01189,0,20, 
695106, 0,27.78257,27548,30.87798,30.91000,709.97900,26.94124,27560,31.01059,58.19600,708.72919,-997.07025, 57.61718, 35.15625, -1.47328, 2.83969, 0.14504, 49.35000, -4.65000, 57.45000, 32.58235, 53,4.57835,0.08633,0.01186,0,20, 
696852, 0,27.78510,27548,30.87251,30.79600,709.97900,26.94030,27560,31.00476,58.11400,708.72919,-1001.46480, 42.48046, 27.83203, 0.40458, -0.53435, -0.68702, 50.10000, -4.35000, 55.65000, 32.72612, 53,4.56687,0.08612,0.01183,0,20, 
698598, 0,27.78763,27549,30.86704,30.84200,709.97900,26.94093,27560,30.99334,57.99300,708.72919,-1012.69530, 39.06250, 31.25000, 3.97710, 2.29008, -1.41985, 48.30000, -4.35000, 55.35000, 32.63028, 53,4.55545,0.08590,0.01180,0,20, 
700343, 0,27.79016,27549,30.85588,30.86500,709.97900,26.94093,27560,30.99908,57.83100,708.72919,-999.99994, 49.31640, 27.34375, 2.67939, -0.06107, 0.93130, 49.20000, -4.20000, 56.25000, 32.39066, 53,4.54410,0.08569,0.01177,0,20, 
702089, 0,27.79332,27549,30.85047,30.95600,709.88916,26.94124,27560,30.98188,57.55100,708.72919,-990.72260, 51.75781, 39.55078, -1.44275, -1.51145, 0.32061, 48.60000, -4.35000, 55.65000, 32.72612, 55,4.70384,0.08870,0.01196,0,20, 
703832, 0,27.79553,27549,30.84497,30.84200,709.88916,26.94124,27561,30.98763,57.63100,708.72919,-999.51166, 45.89843, 35.15625, -3.58015, 3.39695, -4.25954, 49.05000, -3.90000, 55.35000, 32.43858, 55,4.69217,0.08848,0.01193,0,20, 
705576, 0,27.79616,27548,30.83364,30.79600,709.97900,26.94093,27560,30.98760,57.43200,708.81903,-1009.27730, 67.38281, 30.27344, -0.58779, 0.00763, -2.51908, 49.35000, -4.65000, 55.35000, 32.53443, 55,4.68054,0.08826,0.01190,0,20, 
707324, 0,27.79679,27549,30.82800,30.81900,709.88916,26.94093,27560,30.99908,57.99300,708.72919,-989.25775, 46.38671, 29.29687, 0.91603, 2.33588, -0.77099, 47.70000, -5.70000, 55.80000, 32.24689, 55,4.66898,0.08804,0.01187,0,20, 
709070, 0,27.79869,27549,30.82817,30.88700,709.88916,26.94281,27560,31.00498,57.79100,708.72919,-985.35150, 57.61718, 36.62109, 1.22901, -1.07634, 1.58015, 48.45000, -3.75000, 54.75000, 32.58235, 55,4.65748,0.08782,0.01184,0,20, 
710816, 1,27.80027,27548,30.81123,30.79600,709.97900,26.94312,27559,31.02223,57.87100,708.90887,-1019.53120, 51.26953, 30.76172, -1.53435, 3.83206, -3.56489, 49.50000, -3.00000, 54.00000, 32.24689, 55,4.64604,0.08761,0.01181,0,20, 
712561, 0,27.80216,27549,30.81140,30.75100,709.88916,26.94187,27559,31.02212,58.07400,708.90887,-1001.95310, 40.03906, 23.43750, -3.94656, 1.70229, -2.71756, 49.05000, -4.65000, 53.55000, 32.58235, 55,4.63463,0.08739,0.01178,0,20, 
714309, 0,27.80280,27549,30.80007,30.84200,709.88916,26.93874,27559,31.00462,59.19000,708.90887,-1008.30070, 46.38671, 34.17969, -2.83206, 3.53435, -3.45802, 49.20000, -4.20000, 55.80000, 32.29482, 56,4.70735,0.08876,0.01186,0,20, 
716054, 0,27.80248,27549,30.78866,30.81900,709.97900,26.93842,27558,30.99311,59.70000,708.90887,-999.51166, 39.06250, 25.87890, 2.00000, -0.10687, 1.51145, 49.05000, -5.40000, 54.60000, 32.43858, 56,4.69585,0.08855,0.01183,0,20, 
717802, 1,27.80406,27547,30.78311,30.88700,709.97900,26.93905,27559,30.97595,59.57200,708.90887,-997.07025, 60.05859, 23.92578, -2.09924, 4.00763, -3.25954, 49.80000, -4.65000, 54.60000, 32.72612, 56,4.68443,0.08833,0.01180,0,20, 
719547, 0,27.80501,27548,30.77181,30.72800,709.97900,26.93999,27559,30.96456,59.19000,708.90887,-993.65228, 42.48046, 32.22656, 0.11450, -1.16031, 0.05344, 47.70000, -4.50000, 54.00000, 32.58235, 56,4.67306,0.08812,0.01178,0,20, 
721292, 1,27.80754,27547,30.77772,30.70600,710.06622,26.94124,27559,30.97041,58.52300,708.90887,-973.63275, 55.17578, 36.13281, -1.54962, 0.73282, 1.22137, 50.10000, -4.65000, 53.85000, 32.72612, 56,4.66173,0.08790,0.01175,0,20, 
723040, 0,27.80943,27547,30.76082,30.84200,710.15601,26.94093,27558,30.95890,58.23600,708.99872,-1005.37100, 49.31640, 17.57813, 2.43511, 0.82443, -0.60305, 48.00000, -3.30000, 55.50000, 32.39066, 56,4.65047,0.08769,0.01172,0,20, 
724785, 0,27.81133,27547,30.74961,30.63800,710.06622,26.94156,27558,30.96470,58.48200,708.90887,-1002.44130, 53.22265, 24.90234, -3.03817, 3.22137, -2.67176, 49.05000, -3.90000, 54.90000, 32.72612, 56,4.63925,0.08748,0.01169,0,20, 
726533, 0,27.81227,27548,30.74969,30.81900,710.06622,26.94062,27559,30.96461,57.87100,708.90887,-1005.37100, 56.64062, 20.50781, 0.19847, 0.38168, 0.58015, 49.35000, -5.10000, 54.90000, 32.63028, 56,4.62810,0.08727,0.01166,0,20, 
728279, 1,27.81417,27547,30.74417,30.66100,710.06622,26.94093,27558,30.99908,58.27700,708.90887,-1010.74210, 52.24609, 34.66797, -1.83206, 1.32061, -1.54962, 50.40000, -3.90000, 54.60000, 32.77404, 56,4.61698,0.08706,0.01163,0,20, 
730025, 1,27.81417,27547,30.73278,30.77400,710.06622,26.94062,27559,30.97609,58.73000,708.90887,-999.02338, 40.52734, 30.27344, -1.73282, 3.10687, -3.02290, 49.20000, -3.00000, 54.45000, 32.58235, 56,4.60594,0.08685,0.01161,0,20, 
731771, 0,27.81670,27547,30.73301,30.68300,710.06622,26.94062,27559,30.95887,59.40200,708.90887,-1002.44130, 50.29296, 20.50781, 1.10687, 0.00000, 0.18321, 49.95000, -3.30000, 55.80000, 32.72612, 56,4.59494,0.08664,0.01158,0,20, 
733517, 0,27.81859,27547,30.72180,30.66100,710.06622,26.94250,27559,30.95904,58.81300,708.81903,-996.58197, 29.29687, 25.39062, -0.92366, 3.50382, -3.46565, 50.10000, -3.90000, 56.40000, 32.58235, 56,4.58400,0.08644,0.01155,0,20, 
735262, 0,27.82112,27547,30.71634,30.75100,710.15601,26.94344,27559,30.95338,58.81300,708.90887,-1002.92960, 62.98828, 34.66797, 1.12214, 0.52672, 1.07634, 49.50000, -3.30000, 55.50000, 32.77404, 57,4.65477,0.08777,0.01163,0,20, 
737010, 0,27.82270,27546,30.71648,30.66100,710.15601,26.94250,27558,30.96478,58.40000,708.99872,-1003.41790, 51.26953, 22.46094, -2.65649, 1.48092, -2.01527, 48.45000, -3.75000, 56.25000, 32.77404, 57,4.64373,0.08756,0.01160,0,20, 
738755, 0,27.82523,27547,30.69963,30.77400,709.97900,26.94093,27558,30.95316,58.31800,708.90887,-986.32806, 62.01171, 32.71484, -2.17557, 2.23664, -1.49618, 48.75000, -5.25000, 55.80000, 32.63028, 57,4.63275,0.08736,0.01157,0,20, 
740500, 0,27.82649,27548,30.68837,30.68300,710.06622,26.94187,27558,30.97620,57.99300,708.90887,-1004.88280, 41.01562, 43.45703, 0.19084, 2.34351, -0.74046, 49.95000, -5.25000, 55.20000, 32.82197, 57,4.62180,0.08715,0.01154,0,20, 
742248, 0,27.82776,27547,30.68279,30.66100,710.06622,26.94218,27559,30.96475,58.11400,708.81903,-992.67572, 33.69141, 11.71875, 0.43511, -0.22137, -0.23664, 50.10000, -3.60000, 54.90000, 32.43858, 57,4.61093,0.08695,0.01152,0,20, 
743993, 0,27.82997,27548,30.68867,30.66100,710.06622,26.94218,27560,30.96475,58.23600,708.81903,-996.58197, 55.66406, 23.43750, -1.69466, 1.57252, 0.39695, 50.10000, -3.60000, 55.65000, 32.58235, 57,4.60004,0.08674,0.01149,0,20, 
745750, 0,27.83060,27547,30.67167,30.70600,710.06622,26.93748,27559,30.97581,58.15500,708.81903,-999.99994, 63.96484, 20.01953, 1.33588, 0.09160, 0.37405, 49.20000, -6.00000, 55.50000, 32.82197, 57,4.58926,0.08654,0.01146,0,20, 
747495, 0,27.83408,27547,30.67198,30.63800,710.06622,26.93810,27559,31.00457,57.87100,708.81903,-983.39838, 41.99218, 31.25000, 0.42748, -0.07634, 0.29008, 47.10000, -5.10000, 53.85000, 32.58235, 57,4.57852,0.08634,0.01144,0,20, 
749243, 0,27.83692,27547,30.66654,30.66100,710.06622,26.93905,27558,31.00465,57.83100,708.99872,-996.58197, 34.66797, 32.22656, 3.17557, 0.41985, 1.23664, 49.35000, -3.90000, 53.85000, 32.63028, 57,4.56785,0.08613,0.01141,0,20, 
750988, 0,27.83882,27547,30.64965,30.66100,710.15601,26.94093,27557,30.99908,57.71100,708.99872,-1003.41790, 35.15625, 34.66797, 3.03817, 1.24427, -0.74046, 49.35000, -2.85000, 56.40000, 32.72612, 57,4.55721,0.08593,0.01138,0,20, 
752736, 0,27.84134,27547,30.64418,30.68300,710.06622,26.94187,27558,31.01064,57.67100,708.99872,-997.55853, 58.10546, 21.97265, 0.28244, -0.81679, 0.35878, 49.20000, -5.25000, 54.75000, 32.72612, 57,4.54665,0.08573,0.01136,0,20, 
754481, 0,27.84324,27548,30.65004,30.68300,710.06622,26.94281,27558,31.02221,57.27300,708.99872,-1011.71870, 35.64453, 31.25000, -2.80153, 2.03817, -1.42748, 48.45000, -3.30000, 56.25000, 32.72612, 58,4.61570,0.08704,0.01143,0,20, 
756227, 0,27.84640,27547,30.64463,30.61600,710.06622,26.94312,27557,31.03946,57.31300,708.99872,-995.60541, 32.71484, 30.27344, -2.58779, 0.72519, -2.26718, 51.00000, -3.75000, 54.45000, 32.63028, 58,4.60506,0.08684,0.01140,0,20, 
757969, 0,27.84956,27546,30.62785,30.59300,710.06622,26.94469,27558,31.05108,57.15500,709.08594,-1001.95310, 71.28906, 22.46094, 1.99237, -1.21374, 0.66412, 49.35000, -5.40000, 55.35000, 32.53443, 58,4.59444,0.08664,0.01138,0,20, 
759714, 0,27.85145,27547,30.62233,30.68300,710.06622,26.94626,27557,31.03973,57.47100,708.99872,-1011.23040, 55.17578, 38.57422, 1.67939, -0.41221, 0.73282, 49.35000, -3.15000, 54.90000, 32.43858, 58,4.58389,0.08644,0.01135,0,20, 
761458, 0,27.85366,27547,30.61684,30.70600,710.06622,26.94689,27557,31.04554,57.19500,709.08594,-976.07416, 37.59766, 45.41015, -2.45038, 3.64122, -1.98473, 49.35000, -5.10000, 55.35000, 32.58235, 58,4.57337,0.08624,0.01132,0,20, 
763203, 0,27.85461,27546,30.59987,30.50400,710.06622,26.94846,27557,31.03993,57.47100,709.08594,-987.30463, 47.85156, 20.01953, 0.63359, 0.32824, 0.98473, 48.45000, -3.30000, 54.75000, 32.63028, 58,4.56289,0.08604,0.01130,0,20, 
764951, 1,27.85556,27546,30.59427,30.52600,710.24585,26.94814,27557,31.03990,57.55100,709.08594,-999.99994, 33.69141, 24.90234, -1.35878, 3.75573, 0.61832, 48.60000, -3.90000, 56.10000, 32.82197, 58,4.55248,0.08584,0.01127,0,20, 
766696, 0,27.85746,27545,30.61150,30.54900,710.24585,26.94877,27556,31.03996,57.31300,708.99872,-1008.78900, 47.36328, 9.27734, 0.51908, 2.55725, 3.74046, 49.80000, -4.35000, 54.60000, 32.72612, 58,4.54209,0.08565,0.01125,0,20, 
768444, 0,27.85998,27545,30.58330,30.57100,710.24585,26.94940,27557,31.04001,57.55100,708.99872,-995.11713, 35.64453, 29.78515, -2.70229, 2.77099, -1.55725, 50.10000, -3.15000, 56.10000, 32.63028, 58,4.53177,0.08545,0.01122,0,20, 
770190, 0,27.86062,27544,30.58903,30.72800,710.33569,26.95034,27557,31.04010,57.71100,708.99872,-990.23431, 36.13281, 24.41406, -0.66412, 1.96947, -1.29008, 48.75000, -5.25000, 55.20000, 32.43858, 58,4.52149,0.08526,0.01120,0,20, 
771938, 0,27.86156,27545,30.57775,30.50400,710.24585,26.95159,27557,31.05169,56.88100,709.08594,-1025.87890, 37.10938, 30.27344, -1.75573, 4.08397, -2.00000, 48.00000, -4.50000, 55.50000, 32.82197, 59,4.58904,0.08653,0.01127,0,20, 
773683, 0,27.86219,27544,30.57212,30.59300,710.24585,26.95128,27556,31.02870,56.80400,709.08594,-1000.97650, 39.55078, 23.43750, 1.89313, 1.81679, -1.83969, 49.80000, -3.90000, 56.85000, 32.63028, 59,4.57867,0.08634,0.01124,0,20, 
775428, 0,27.86504,27544,30.54964,30.66100,710.33569,26.95254,27557,31.03455,57.07700,709.08594,-1004.88280, 61.52343, 35.15625, -2.03053, 1.25954, -2.69466, 49.20000, -4.20000, 54.00000, 32.72612, 59,4.56834,0.08614,0.01121,0,20, 
777176, 0,27.86567,27544,30.56106,30.45900,710.42291,26.95379,27556,31.01743,56.99800,709.08594,-985.83978, 49.80468, 43.94531, 1.41985, 1.02290, 2.95420, 49.05000, -3.90000, 54.90000, 32.72612, 59,4.55808,0.08595,0.01119,0,20, 
778920, 0,27.86757,27543,30.55555,30.52600,710.42291,26.95379,27557,31.01169,56.84300,709.08594,-985.83978, 40.52734, 29.78515, -0.22901, 1.89313, -1.32824, 49.50000, -4.50000, 55.50000, 32.77404, 59,4.54784,0.08576,0.01116,0,20, 
780668, 2,27.87041,27544,30.53875,30.63800,710.24585,26.95285,27557,31.00587,57.11600,709.08594,-999.02338, 44.43359, 30.27344, -2.86260, 2.69466, -2.05344, 48.60000, -4.35000, 54.90000, 32.72612, 60,4.61459,0.08702,0.01123,0,20, 
782412, 0,27.87199,27544,30.54457,30.43700,710.24585,26.95379,27556,31.00595,57.15500,709.08594,-989.25775, 35.64453, 35.15625, -2.74809, 1.54962, -0.92366, 49.20000, -4.95000, 54.00000, 32.82197, 60,4.60428,0.08682,0.01121,0,20, 
784160, 1,27.87357,27545,30.53334,30.45900,710.24585,26.95473,27555,30.98308,57.03800,709.17572,-1006.34760, 55.17578, 23.43750, 0.44275, 2.84733, 2.03053, 49.50000, -4.95000, 55.50000, 32.53443, 60,4.59402,0.08663,0.01118,0,20, 
785905, 0,27.87515,27545,30.52780,30.43700,710.24585,26.95630,27555,30.98322,56.99800,709.17572,-1019.04290, 42.96875, 27.83203, -1.62595, 2.13740, -3.29771, 49.80000, -4.65000, 56.10000, 32.43858, 60,4.58380,0.08643,0.01116,0,20, 
787653, 0,27.87831,27545,30.51671,30.50400,710.33569,26.95504,27555,31.00032,57.59100,709.17572,-1008.30070, 32.71484, 31.73828, 2.90076, 0.42748, 0.85496, 49.50000, -5.25000, 54.45000, 32.72612, 60,4.57363,0.08624,0.01113,0,20, 
789398, 0,27.88052,27544,30.51123,30.48200,710.33569,26.95316,27555,30.98868,58.40000,709.17572,-993.65228, 53.71093, 30.76172, -0.42748, 1.14504, -1.31298, 49.50000, -3.00000, 55.20000, 32.72612, 60,4.56351,0.08605,0.01111,0,20, 
791146, 0,27.88273,27544,30.51710,30.66100,710.33569,26.95159,27555,30.97706,58.98000,709.17572,-1006.83590, 47.85156, 27.34375, -2.82443, 0.43511, -0.63359, 49.20000, -2.55000, 53.40000, 32.72612, 61,4.62931,0.08729,0.01118,0,20, 
792891, 0,27.88431,27543,30.50588,30.43700,710.42291,26.94971,27555,30.95968,59.91500,709.26556,-989.74603, 42.96875, 31.73828, -0.50382, 1.33588, 0.54198, 49.95000, -3.30000, 55.50000, 32.91781, 62,4.69484,0.08853,0.01124,0,20, 
794636, 0,27.88621,27543,30.49468,30.52600,710.42291,26.94877,27555,30.93090,60.39400,709.17572,-981.93353, 36.13281, 29.29687, 2.35115, 1.67939, 2.41221, 48.60000, -5.40000, 54.60000, 32.58235, 62,4.68451,0.08833,0.01122,0,20, 
796384, 1,27.88779,27543,30.49483,30.43700,710.42291,26.95003,27556,30.89660,60.57000,709.08594,-1005.37100, 46.38671, 20.50781, 0.41985, 0.02290, -0.43511, 50.25000, -3.75000, 55.20000, 32.77404, 62,4.67424,0.08814,0.01119,0,20, 
798129, 1,27.89000,27544,30.48934,30.63800,710.33569,26.95128,27556,30.89670,59.70000,709.17572,-993.65228, 38.57422, 32.22656, -3.96183, 2.22137, -1.62595, 49.80000, -3.90000, 56.85000, 32.58235, 62,4.66400,0.08795,0.01117,0,20, 
799877, 0,27.89316,27543,30.47825,30.41500,710.42291,26.95128,27556,30.89670,59.23200,709.17572,-993.16400, 29.78515, 14.16016, -3.87023, 2.94656, -2.85496, 49.20000, -3.75000, 54.45000, 32.58235, 62,4.65382,0.08775,0.01114,0,20, 
801623, 0,27.89474,27543,30.48408,30.61600,710.51276,26.95159,27555,30.89673,59.35900,709.08594,-997.07025, 35.15625, 33.69141, 2.90840, 0.93130, 0.82443, 49.20000, -4.50000, 55.80000, 32.63028, 62,4.64366,0.08756,0.01112,0,20, 
803371, 0,27.89569,27542,30.46144,30.39300,710.51276,26.95222,27555,30.91973,59.06400,709.17572,-997.55853, 35.15625, 32.71484, 1.57252, 0.11450, -1.09160, 48.30000, -5.10000, 55.65000, 32.77404, 62,4.63357,0.08737,0.01110,0,20, 
805113, 0,27.89663,27543,30.45584,30.52600,710.42291,26.95316,27554,30.92555,58.68900,709.26556,-1003.90620, 36.13281, 45.89843, -1.65649, 1.86260, -1.45038, 49.95000, -4.95000, 54.75000, 32.72612, 62,4.62352,0.08718,0.01107,0,20, 
806861, 1,27.89727,27543,30.45589,30.39300,710.42291,26.95285,27554,30.93126,58.23600,709.26556,-1002.44130, 63.96484, 15.62500, -0.85496, 3.99237, 0.83206, 49.80000, -5.40000, 53.85000, 32.72612, 62,4.61351,0.08699,0.01105,0,20, 
808604, 1,27.89916,27543,30.44471,30.39300,710.42291,26.95442,27555,30.92566,58.15500,709.17572,-1019.04290, 30.27344, 41.99218, -3.54198, 3.06870, -0.76336, 49.05000, -5.40000, 54.30000, 32.63028, 62,4.60356,0.08681,0.01102,0,20, 
810348, 1,27.90169,27543,30.43357,30.54900,710.42291,26.95442,27555,30.93140,58.15500,709.35278,-997.07025, 43.45703, 41.50390, -2.06870, 3.12214, -4.45802, 50.40000, -5.10000, 55.35000, 32.72612, 62,4.59363,0.08662,0.01100,0,20, 
812095, 0,27.90169,27543,30.42221,30.39300,710.33569,26.95254,27554,30.92550,57.79100,709.17572,-989.25775, 23.92578, 39.55078, -1.12977, 3.68702, 0.73282, 49.50000, -4.95000, 55.20000, 32.63028, 62,4.58375,0.08643,0.01098,0,20, 
813841, 1,27.90359,27543,30.42238,30.43700,710.42291,26.95316,27555,30.91408,58.19600,709.26556,-997.07025, 48.33984, 25.39062, -1.77863, 2.46565, -1.43511, 49.80000, -3.90000, 54.90000, 32.58235, 62,4.57390,0.08625,0.01095,0,20, 
815589, 0,27.90485,27543,30.42249,30.61600,710.42291,26.95128,27555,30.90818,58.56500,709.17572,-979.98041, 44.92187, 18.55469, -1.93130, 2.38931, -1.56489, 50.40000, -4.65000, 54.90000, 32.63028, 62,4.56411,0.08606,0.01093,0,20, 
817332, 0,27.90706,27543,30.41133,30.37100,710.42291,26.95159,27555,30.87952,59.57200,709.17572,-984.86322, 41.01562, 35.15625, -0.48855, 1.98473, -1.83206, 48.30000, -3.60000, 54.30000, 32.29482, 62,4.55436,0.08588,0.01091,0,20, 
819078, 0,27.90959,27543,30.40587,30.37100,710.42291,26.95034,27555,30.87941,59.19000,709.26556,-988.76947, 48.82812, 25.87890, 2.60305, -1.50382, 3.05344, 50.10000, -4.35000, 54.90000, 32.72612, 63,4.61795,0.08708,0.01097,0,20, 
820823, 0,27.90927,27542,30.40017,30.45900,710.51276,26.95097,27555,30.86226,58.93800,709.26556,-981.44525, 56.15234, 22.94922, 2.28244, 1.77863, 3.37405, 49.20000, -3.75000, 54.00000, 32.91781, 63,4.60811,0.08689,0.01095,0,20, 
822571, 0,27.91022,27542,30.39457,30.39300,710.51276,26.95128,27554,30.86229,58.68900,709.17572,-981.44525, 41.01562, 31.73828, 0.34351, 2.19847, -1.90840, 49.80000, -3.15000, 57.45000, 32.24689, 63,4.59834,0.08671,0.01092,0,20, 
824314, 0,27.91117,27541,30.38330,30.43700,710.51276,26.95128,27555,30.86802,57.95200,709.17572,-994.62885, 50.29296, 31.73828, 1.19847, -0.44275, 2.70229, 49.35000, -3.90000, 55.35000, 32.58235, 63,4.58860,0.08653,0.01090,0,20, 
826062, 0,27.91117,27542,30.37762,30.39300,710.42291,26.95097,27556,30.86800,57.63100,709.17572,-1000.48820, 46.87500, 5.85937, -0.60305, 2.29771, -2.86260, 50.70000, -4.20000, 55.20000, 32.58235, 63,4.57888,0.08634,0.01088,0,20, 
827807, 0,27.91148,27543,30.37198,30.34900,710.33569,26.95065,27555,30.86223,57.39200,709.08594,-1002.44130, 41.50390, 28.32031, 0.64122, 2.89313, -0.76336, 49.80000, -4.65000, 54.60000, 32.72612, 65,4.71427,0.08889,0.01103,0,20, 
829552, 0,27.91243,27544,30.35503,30.34900,710.24585,26.95159,27556,30.86805,57.47100,709.08594,-1004.39450, 53.71093, 33.20313, 1.74809, -1.33588, 0.38168, 49.50000, -3.75000, 54.00000, 32.72612, 65,4.70433,0.08871,0.01100,0,20, 
831300, 0,27.91117,27544,30.36059,30.32700,710.33569,26.95191,27557,30.87381,57.47100,709.17572,-995.11713, 39.55078, 30.76172, -0.51908, 2.39695, -3.68702, 48.45000, -3.75000, 56.25000, 32.72612, 65,4.69445,0.08852,0.01098,0,20, 
833045, 0,27.91401,27544,30.34950,30.45900,710.33569,26.95065,27555,30.87370,57.95200,709.17572,-1005.37100, 51.26953, 7.32422, -1.72519, 1.90840, -1.18321, 49.50000, -3.75000, 55.20000, 32.72612, 65,4.68459,0.08834,0.01096,0,20, 
834793, 0,27.91496,27543,30.34958,30.30500,710.33569,26.95003,27556,30.86791,58.68900,709.17572,-993.16400, 52.24609, 36.62109, 0.99237, 1.35115, 1.92366, 48.75000, -4.95000, 54.45000, 32.58235, 65,4.67480,0.08815,0.01093,0,20, 
836539, 0,27.91654,27544,30.34404,30.39300,710.33569,26.95128,27556,30.85082,59.10600,709.17572,-991.69916, 59.57031, 36.13281, -1.02290, -0.60305, 1.83206, 48.75000, -3.00000, 53.70000, 32.72612, 65,4.66503,0.08797,0.01091,0,20, 
838285, 0,27.91812,27544,30.33850,30.37100,710.33569,26.95191,27556,30.85661,59.57200,709.17572,-989.25775, 74.70703, 22.94922, 1.25954, -1.07634, 1.69466, 50.70000, -2.55000, 55.20000, 32.82197, 65,4.65533,0.08778,0.01089,0,20, 
840028, 0,27.91907,27543,30.32724,30.45900,710.42291,26.95159,27555,30.84511,59.61500,709.17572,-1009.27730, 43.45703, 32.22656, -0.64885, 0.00763, -2.38931, 48.45000, -4.95000, 54.75000, 32.82197, 65,4.64563,0.08760,0.01087,0,20, 
841776, 0,27.92064,27543,30.33305,30.50400,710.33569,26.95065,27556,30.82209,59.65700,709.17572,-996.09369, 68.35938, 29.29687, 0.57252, 0.91603, -1.22901, 49.20000, -4.50000, 54.75000, 32.77404, 65,4.63600,0.08742,0.01084,0,20, 
843521, 0,27.92223,27544,30.31616,30.43700,710.33569,26.95003,27555,30.82204,59.61500,709.17572,-1009.27730, 49.31640, 20.99609, -1.69466, 1.78626, -2.38931, 48.30000, -3.15000, 53.85000, 32.58235, 65,4.62640,0.08724,0.01082,0,20, 
845265, 0,27.92349,27542,30.31627,30.39300,710.51276,26.94971,27556,30.82201,59.10600,709.08594,-997.55853, 41.01562, 18.06641, -2.55725, 4.46565, 0.05344, 48.30000, -4.35000, 55.50000, 32.72612, 65,4.61683,0.08706,0.01080,0,20, 
847013, 0,27.92412,27542,30.29931,30.45900,710.42291,26.94971,27556,30.82774,58.44100,709.08594,-976.56244, 48.33984, 21.97265, -1.57252, 0.33588, -0.91603, 49.50000, -4.20000, 55.20000, 32.96574, 65,4.60731,0.08688,0.01078,0,20, 
848759, 0,27.92633,27543,30.29951,30.48200,710.42291,26.94909,27557,30.82769,58.03300,709.08594,-1016.11320, 26.85547, 25.87890, 3.19847, 1.39695, 1.19084, 50.25000, -4.20000, 55.80000, 32.77404, 65,4.59782,0.08670,0.01075,0,20, 
850507, 0,27.92696,27543,30.30523,30.39300,710.42291,26.94814,27557,30.84480,57.79100,709.08594,-998.53510, 45.41015, 36.13281, 0.62595, 1.04580, -3.15267, 48.60000, -3.15000, 53.85000, 32.72612, 65,4.58838,0.08652,0.01073,0,20, 
852252, 0,27.92760,27543,30.29961,30.41500,710.33569,26.94720,27557,30.85619,58.11400,709.17572,-987.30463, 33.69141, 26.36719, -0.09160, -0.25954, 0.45038, 48.45000, -3.75000, 54.00000, 32.91781, 66,4.64940,0.08767,0.01079,0,20, 
854000, 1,27.92981,27544,30.29413,30.23900,710.33569,26.94752,27556,30.85622,57.87100,709.17572,-1025.39060, 31.73828, 34.17969, 0.39695, 0.73282, -2.83969, 50.25000, -3.30000, 54.00000, 32.58235, 66,4.63990,0.08749,0.01077,0,20, 
855743, 0,27.93202,27544,30.27731,30.45900,710.24585,26.95034,27555,30.86794,58.03300,709.17572,-1002.92960, 40.52734, 20.01953, -1.16031, 3.37405, 3.26718, 48.60000, -3.90000, 54.60000, 32.72612, 66,4.63043,0.08731,0.01075,0,20, 
857489, 0,27.93328,27544,30.26607,30.30500,710.24585,26.94971,27555,30.87362,57.91200,709.17572,-987.79291, 40.03906, 17.08984, -0.25954, 3.25191, -3.58015, 50.10000, -3.60000, 54.60000, 32.58235, 66,4.62101,0.08714,0.01073,0,20, 
859232, 0,27.93455,27544,30.26618,30.45900,710.33569,26.94814,27555,30.89069,57.95200,709.26556,-999.99994, 43.94531, 21.97265, 1.68702, -0.22901, 0.38168, 50.25000, -2.55000, 55.80000, 32.82197, 66,4.61164,0.08696,0.01070,0,20, 
860978, 0,27.93455,27544,30.24917,30.37100,710.33569,26.94375,27555,30.88457,59.02200,709.17572,-1008.30070, 52.73437, 39.55078, -0.81679, 1.11450, 3.78626, 50.70000, -5.25000, 54.75000, 32.82197, 66,4.60227,0.08678,0.01068,0,20, 
862723, 0,27.93581,27543,30.24361,30.21700,710.33569,26.94250,27556,30.86152,60.35000,709.17572,-998.53510, 39.55078, 40.03906, 1.63359, 0.74809, 0.45038, 48.30000, -3.60000, 54.60000, 32.53443, 66,4.59296,0.08661,0.01066,0,20, 
864468, 0,27.93802,27543,30.23812,30.23900,710.42291,26.94250,27555,30.86152,60.43800,709.26556,-1004.88280, 46.38671, 17.08984, -1.09160, 1.72519, -1.68702, 49.05000, -3.60000, 55.35000, 32.96574, 66,4.58366,0.08643,0.01064,0,20, 
866216, 0,27.93771,27543,30.23243,30.23900,710.42291,26.94375,27555,30.86736,59.44400,709.26556,-1010.74210, 30.76172, 30.27344, -1.17557, 1.73282, -2.83206, 49.05000, -4.35000, 56.40000, 32.58235, 66,4.57442,0.08626,0.01062,0,20, 
867961, 0,27.94087,27543,30.22704,30.21700,710.33569,26.94218,27554,30.87869,59.70000,709.26556,-993.16400, 38.08594, 36.62109, -0.28244, 0.60305, 0.06107, 48.45000, -4.50000, 54.75000, 32.72612, 66,4.56520,0.08608,0.01060,0,20, 
869709, 0,27.94276,27543,30.22720,30.30500,710.33569,26.94062,27555,30.89002,59.06400,709.17572,-1013.18350, 37.59766, 20.01953, -0.65649, 4.40458, -1.68702, 49.35000, -3.15000, 54.30000, 32.72612, 66,4.55604,0.08591,0.01057,0,20, 
871452, 0,27.94529,27543,30.22742,30.19500,710.33569,26.94156,27555,30.89585,58.77200,709.26556,-990.72260, 41.01562, 45.89843, 1.66412, -0.05344, 1.46565, 49.50000, -3.30000, 54.75000, 32.58235, 66,4.54690,0.08574,0.01055,0,20, 
873200, 0,27.94687,27543,30.21055,30.21700,710.42291,26.94312,27555,30.91319,58.35900,709.35278,-1000.97650, 27.83203, 24.41406, -0.77099, 2.80916, -1.26718, 49.20000, -4.20000, 55.80000, 32.58235, 66,4.53781,0.08557,0.01053,0,20, 
874945, 1,27.94971,27543,30.22214,30.37100,710.42291,26.94407,27555,30.93049,58.11400,709.17572,-995.60541, 49.80468, 25.39062, -0.07634, -0.00763, 3.89313, 49.50000, -3.30000, 54.75000, 32.82197, 66,4.52874,0.08540,0.01051,0,20, 
876693, 0,27.95003,27542,30.19949,30.39300,710.42291,26.94407,27555,30.95344,58.03300,709.17572,-985.35150, 46.38671, 38.57422, 1.11450, 3.49618, -0.81679, 49.35000, -4.65000, 54.30000, 32.72612, 66,4.51972,0.08523,0.01049,0,20, 
878439, 0,27.95288,27543,30.19973,30.26100,710.42291,26.94312,27556,30.97631,57.71100,709.17572,-984.86322, 46.87500, 28.80859, 2.06870, 2.17557, 1.98473, 49.50000, -4.95000, 55.20000, 32.72612, 66,4.51073,0.08506,0.01047,0,20, 
880184, 0,27.95414,27543,30.19984,30.17300,710.33569,26.94250,27555,30.97626,57.71100,709.17572,-1005.85930, 40.52734, 18.55469, 1.45802, 1.05344, -0.94656, 49.05000, -4.35000, 56.40000, 32.77404, 66,4.50177,0.08489,0.01045,0,20, 
881932, 0,27.95667,27544,30.18872,30.21700,710.33569,26.94344,27556,30.97634,57.87100,709.17572,-992.18744, 48.82812, 27.83203, -3.33588, 2.94656, -2.58015, 50.10000, -4.35000, 55.65000, 32.77404, 66,4.49286,0.08472,0.01043,0,20, 
883677, 0,27.95982,27543,30.20033,30.23900,710.33569,26.94344,27555,30.97060,57.71100,709.17572,-1005.37100, 56.64062, 39.06250, -2.58015, 3.47328, -1.50382, 49.50000, -4.50000, 56.55000, 32.72612, 66,4.48396,0.08455,0.01041,0,20, 
885425, 0,27.96140,27543,30.18913,30.19500,710.33569,26.94218,27556,30.95327,57.47100,709.17572,-1005.85930, 39.06250, 22.46094, -0.40458, 3.06107, -0.63359, 50.10000, -3.90000, 54.90000, 32.53443, 66,4.47512,0.08439,0.01039,0,20, 
887170, 0,27.96267,27543,30.18358,30.21700,710.33569,26.94218,27556,30.96475,57.71100,709.17572,-980.46869, 45.89843, 30.27344, 1.06107, 1.03053, -0.36641, 50.10000, -4.65000, 55.65000, 32.72612, 66,4.46631,0.08422,0.01037,0,20, 
888915, 0,27.96393,27543,30.17235,30.13000,710.33569,26.94218,27556,30.95327,57.59100,709.08594,-999.02338, 47.36328, 31.73828, 0.46565, 0.12977, -1.72519, 50.10000, -3.60000, 55.65000, 32.63028, 66,4.45754,0.08405,0.01035,0,20, 
890660, 0,27.96583,27543,30.17252,30.32700,710.33569,26.94438,27555,30.94773,57.55100,709.17572,-1001.95310, 38.08594, 26.36719, 0.73282, 3.33588, -2.50382, 49.80000, -2.40000, 54.60000, 32.72612, 66,4.44878,0.08389,0.01033,0,20, 
892408, 0,27.96709,27543,30.16695,30.17300,710.42291,26.94501,27555,30.94205,57.23400,709.17572,-996.58197, 52.24609, 23.43750, -0.39695, 0.74809, -0.19847, 48.75000, -4.20000, 56.25000, 32.82197, 66,4.44008,0.08372,0.01031,0,20, 
894154, 0,27.96709,27543,30.14428,30.17300,710.42291,26.94501,27555,30.93631,57.59100,709.17572,-1004.88280, 52.73437, 33.20313, -0.62595, 1.76336, -0.67939, 49.05000, -3.15000, 54.90000, 32.72612, 67,4.49855,0.08483,0.01036,0,20, 
895902, 0,27.96867,27543,30.15009,30.34900,710.42291,26.94532,27555,30.91912,56.95900,709.17572,-999.99994, 45.89843, 20.01953, -2.10687, 2.99237, -2.68702, 49.80000, -4.35000, 56.10000, 32.82197, 67,4.48977,0.08466,0.01034,0,20, 
897647, 0,27.96962,27543,30.15584,30.21700,710.42291,26.94469,27556,30.91907,57.39200,709.08594,-1012.20700, 49.31640, 16.11328, -2.48855, 3.32824, 1.35878, 48.75000, -4.95000, 55.80000, 32.63028, 67,4.48104,0.08450,0.01032,0,20, 
899390, 0,27.97025,27542,30.13889,30.19500,710.42291,26.94375,27557,30.90751,57.75100,709.08594,-999.99994, 65.91797, 21.48437, -2.80153, 0.58779, -3.51908, 50.10000, -5.10000, 54.60000, 32.72612, 67,4.47233,0.08433,0.01030,0,20, 
901138, 0,27.96931,27543,30.13314,30.17300,710.33569,26.94501,27557,30.90762,58.40000,709.17572,-993.16400, 29.78515, 17.57813, 1.00763, -0.14504, 0.55725, 49.05000, -3.90000, 56.10000, 32.82197, 67,4.46366,0.08417,0.01028,0,20, 
902883, 0,27.97057,27544,30.12758,30.23900,710.33569,26.94375,27555,30.90178,58.44100,709.26556,-996.58197, 51.75781, 22.94922, 2.21374, 0.16031, 1.29771, 50.10000, -5.85000, 55.65000, 32.91781, 67,4.45501,0.08401,0.01026,0,20, 
904631, 0,27.97278,27544,30.12211,30.30500,710.33569,26.94218,27554,30.89590,58.19600,709.26556,-989.25775, 49.80468, 23.92578, 2.23664, -0.23664, 0.89313, 49.95000, -3.30000, 56.55000, 32.77404, 67,4.44642,0.08384,0.01024,0,20, 
906376, 0,27.97436,27544,30.11658,30.26100,710.42291,26.94281,27555,30.87874,58.03300,709.08594,-999.02338, 70.31250, 28.80859, -2.82443, 2.41985, -1.06107, 49.05000, -3.90000, 53.85000, 32.43858, 67,4.43784,0.08368,0.01022,0,20, 
