millis, UV [0-1023], BME_1_Temp, BME_1_Pres, BME_1_Hum, BME_1_Res, BME_1_Alt, BME_2_Temp, BME_2_Pres, BME_2_Hum, BME_2_Res, BME_2_Alt, Scaled. Acc.X, Scaled. Acc.Y, Scaled. Acc.Z, Gyr.X, Gyr.Y, Gyr.Z, Mag.X, Mag.Y, Mag.Z, Tmp, Radiation_count, counts_per_minute, uSvh, uSvhError, noiseCount, Ozone (PPB.), 
230331,28.11274,27608,29.04436,22.72200,704.36151,27.06733,27613,31.19988,31.63800,704.00482,18.06641, 0.00000, 1025.87890, 0.92366, -0.19847, 1.47328, 29.25000, -12.90000, 61.65000, 32.00728, 0,0.00000,0.00000,0.00000,0,157, 
247740,27.95508,27611,28.64355,30.52600,704.27167,26.92431,27614,30.76818,41.56200,704.00482,24.90234, 4.39453, 1039.55080, 2.74046, 2.22137, 0.93130, 28.65000, -13.50000, 61.80000, 32.10312, 1,17.32602,0.32671,0.32671,0,160, 
265140,27.84576,27612,28.31522,38.31200,704.18451,26.81892,27614,30.46701,51.33200,703.91498,18.06641, 6.34766, 1035.15630, -1.10687, 3.68702, -1.38168, 28.50000, -12.90000, 61.65000, 32.24689, 1,11.53181,0.21745,0.21745,0,159, 
282540,27.79205,27613,28.04816,45.19500,704.09467,26.76467,27614,30.23949,60.30700,703.82776,5.85937, 16.60156, 1031.25000, -2.75573, 3.15267, -3.35878, 26.40000, -10.80000, 63.00000, 32.24689, 1,8.64055,0.16293,0.16293,0,155, 
299971,27.77025,27613,27.86227,50.92800,704.00482,26.74302,27616,30.07787,68.67700,703.73798,9.27734, 4.39453, 1033.69140, -0.99237, 0.77099, 1.35115, 25.80000, -12.15000, 62.40000, 32.10312, 2,13.81693,0.26054,0.18423,0,146, 
317361,27.76519,27614,27.71142,56.47800,704.00482,26.73895,27616,29.98063,74.32700,703.73798,16.60156, 17.08984, 1027.83200, -3.07634, 3.53435, -2.26718, 29.55000, -13.65000, 60.90000, 32.24689, 2,11.50858,0.21701,0.15345,0,133, 
334790,27.76867,27614,27.58924,61.29100,703.91498,26.74428,27616,29.91842,80.28600,703.73798,13.67187, 10.74219, 1030.27340, 2.15267, -0.62595, 2.64122, 29.55000, -14.10000, 62.10000, 32.24689, 2,9.86193,0.18596,0.13149,0,121, 
352190,27.77499,27614,27.51187,64.96600,703.91498,26.75526,27617,29.87381,85.66400,703.73798,20.99609, 3.90625, 1020.50780, -1.79389, 5.28244, -3.25954, 28.05000, -14.10000, 62.40000, 32.24689, 2,8.62689,0.16267,0.11503,0,109, 
369620,27.78131,27614,27.44566,68.71100,703.91498,26.76624,27616,29.85198,90.31700,703.73798,22.46094, 0.00000, 1029.29690, 1.52672, 0.93130, 0.77099, 29.55000, -12.60000, 61.65000, 32.24689, 2,7.66822,0.14460,0.10224,0,99, 
387022,27.78889,27615,27.38515,71.84700,703.91498,26.77847,27615,29.82457,93.57100,703.82776,20.50781, 10.74219, 1003.90620, 2.01527, 0.24427, -1.64122, 27.15000, -12.75000, 63.75000, 32.19897, 2,6.90052,0.13012,0.09201,0,91, 
404441,27.79743,27615,27.34694,74.67600,704.00482,26.79070,27616,29.79147,95.82100,703.73798,14.64844, -0.97656, 1028.32030, 0.98473, -0.10687, 1.58779, 28.95000, -13.05000, 61.20000, 32.29482, 2,6.27221,0.11827,0.08363,0,85, 
421841,27.80722,27614,27.33106,77.23400,703.91498,26.80262,27616,29.78110,98.43100,703.73798,19.04297, 1.46484, 1022.94920, 0.61832, 0.32061, 1.36641, 27.00000, -10.20000, 63.90000, 32.10312, 2,5.74933,0.10841,0.07666,0,79, 
439240,27.81670,27614,27.32627,79.21300,704.00482,26.81516,27615,29.78217,100.94100,703.82776,19.53125, -0.97656, 1029.29690, 1.89313, 0.24427, 0.00000, 27.00000, -11.70000, 61.65000, 32.00728, 2,5.30621,0.10006,0.07075,0,75, 
456661,27.82681,27613,27.31597,81.85600,704.00482,26.82739,27615,29.77184,102.49600,703.82776,11.71875, -1.95312, 1023.92570, 2.36641, 0.42748, 0.00763, 27.90000, -13.05000, 61.50000, 32.05520, 2,4.92732,0.09291,0.06570,0,71, 
474060,27.83882,27614,27.32248,83.16100,704.00482,26.84276,27616,29.79022,105.15400,703.73798,6.34766, 14.16016, 1032.22660, -3.09160, 2.19084, -2.49618, 27.75000, -12.90000, 63.15000, 32.24689, 2,4.59841,0.08671,0.06131,0,67, 
491481,27.85051,27614,27.35120,84.59400,704.00482,26.85688,27616,29.80851,106.09400,703.73798,32.71484, 6.83594, 1037.10940, -1.23664, 1.64885, -2.93893, 26.70000, -12.00000, 61.20000, 32.39066, 2,4.31096,0.08129,0.05748,0,64, 
508880,27.86093,27614,27.40760,85.72400,704.00482,26.87036,27617,29.85521,109.01600,703.73798,7.32422, 6.34766, 1040.52730, -1.97710, 4.22137, -1.58015, 27.30000, -12.15000, 62.10000, 32.19897, 2,4.05693,0.07650,0.05409,0,62, 
526310,27.87167,27614,27.44737,87.52300,703.91498,26.88197,27617,29.90746,109.88100,703.64813,17.08984, 1.95312, 1043.45700, -1.45802, 3.53435, -2.29771, 27.75000, -12.90000, 61.35000, 32.05520, 2,3.83154,0.07225,0.05109,0,59, 
543710,27.88084,27615,27.45923,88.63800,703.82776,26.89388,27617,29.94836,110.46500,703.64813,19.04297, 1.46484, 1019.53120, -2.00000, 3.03817, -1.33588, 26.70000, -12.30000, 60.45000, 32.39066, 3,5.44498,0.10267,0.05928,0,57, 
561130,27.89031,27615,27.45999,90.07400,703.82776,26.90549,27617,29.94366,112.48300,703.64813,25.87890, 14.64844, 1017.57810, -1.74809, 3.58779, 0.43511, 27.45000, -8.55000, 67.65000, 32.58235, 3,5.17227,0.09753,0.05631,0,55, 
578520,27.90106,27615,27.46085,91.05700,703.91498,26.91709,27618,29.94466,114.81300,703.64813,16.11328, 9.27734, 1040.03910, 0.82443, -0.14504, 0.98473, 27.75000, -9.45000, 63.45000, 32.43858, 3,4.92597,0.09289,0.05363,0,49, 
595920,27.91180,27616,27.41168,92.57200,703.82776,26.92713,27617,29.89994,115.21100,703.64813,14.16016, 21.48437, 1027.83200, 1.61069, 0.97710, 0.56489, 27.90000, -13.50000, 61.50000, 32.29482, 3,4.70170,0.08866,0.05119,0,41, 
613350,27.92254,27616,27.37920,93.61100,703.73798,26.93968,27618,29.86684,116.74800,703.64813,19.53125, 5.37109, 1040.52730, -1.75573, 2.93130, 0.17557, 28.05000, -12.60000, 62.40000, 32.29482, 3,4.49730,0.08480,0.04896,0,35, 
630750,27.93265,27616,27.33000,94.45800,703.73798,26.95003,27617,29.81079,117.74000,703.55829,17.08984, 13.18359, 1020.50780, 2.31298, -0.64122, -2.37405, 27.90000, -13.50000, 61.80000, 32.63028, 3,4.30973,0.08127,0.04692,0,28, 
648180,27.94213,27616,27.28633,95.10400,703.82776,26.96069,27619,29.77186,119.09000,703.55829,12.20703, 9.76563, 1029.78520, 0.41985, -2.43511, -2.14504, 28.65000, -12.00000, 61.20000, 32.24689, 3,4.13746,0.07802,0.04504,0,24, 
665570,27.95382,27616,27.22619,94.54600,703.82776,26.97041,27618,29.72147,119.60400,703.55829,10.25391, 11.23047, 1029.29690, -0.85496, 2.00763, 0.58779, 27.45000, -13.05000, 63.30000, 32.58235, 3,3.97808,0.07501,0.04331,0,21, 
682990,27.96299,27615,27.17141,95.96000,703.82776,26.97982,27618,29.65401,121.61600,703.64813,15.62500, -8.78906, 1033.20310, 1.88550, 1.96947, -0.55725, 28.65000, -13.05000, 61.50000, 32.29482, 3,3.83077,0.07223,0.04170,0,20, 
700390,27.96488,27616,27.06616,97.87300,703.82776,26.98546,27619,29.53511,124.34500,703.47107,14.64844, 18.06641, 1036.62110, -3.23664, 2.29008, -0.87023, 28.95000, -12.75000, 62.55000, 32.10312, 3,3.69397,0.06966,0.04022,0,20, 
717820,27.96488,27615,26.93315,98.56700,703.82776,26.99111,27619,29.35954,124.62500,703.47107,21.97265, 2.92969, 1035.64450, -0.96183, 0.03817, -0.23664, 28.50000, -11.70000, 61.35000, 32.19897, 3,3.56648,0.06725,0.03883,0,20, 
735220,27.96740,27615,26.80599,99.03500,703.82776,26.99707,27619,29.21256,124.90600,703.55829,20.99609, 2.44141, 1016.60150, -1.83206, 2.99237, 0.76336, 27.15000, -12.75000, 62.55000, 32.43858, 4,4.59691,0.08668,0.04334,0,20, 
752610,27.97436,27615,26.74567,97.98800,703.73798,27.00648,27619,29.13400,124.81200,703.38123,11.23047, 10.74219, 1031.73830, -2.27481, 4.57252, -0.56489, 27.90000, -10.80000, 61.50000, 32.39066, 4,4.44840,0.08388,0.04194,0,20, 
770030,27.97973,27615,26.72396,99.68600,703.91498,27.01401,27620,29.15163,125.56600,703.47107,22.94922, 11.71875, 1041.50390, -1.81679, 3.06107, -3.43511, 27.90000, -12.30000, 63.75000, 32.43858, 4,4.30957,0.08126,0.04063,0,20, 
787410,27.98194,27615,26.70755,100.76900,703.91498,27.01871,27619,29.14636,127.19900,703.47107,23.92578, 1.95312, 1021.48430, -1.65649, 2.34351, -1.71756, 27.15000, -13.05000, 63.00000, 32.39066, 4,4.17893,0.07880,0.03940,0,20, 
804820,27.98384,27615,26.66346,102.06400,703.91498,27.02216,27620,29.08999,128.47701,703.47107,13.18359, 6.83594, 1022.46090, -1.88550, 2.48855, 0.45038, 27.90000, -11.55000, 62.25000, 32.39066, 4,4.05611,0.07648,0.03824,0,20, 
822220,27.98099,27615,26.61901,102.44000,703.91498,27.02436,27619,29.03354,128.77600,703.47107,11.71875, 13.18359, 1032.22660, -1.72519, 3.25954, -2.19084, 26.70000, -13.05000, 63.30000, 32.39066, 4,3.94011,0.07430,0.03715,0,20, 
839630,27.97531,27615,26.55778,103.00900,703.91498,27.02592,27619,28.96573,130.39200,703.55829,6.34766, 1.46484, 1038.08590, 0.00000, 2.37405, -1.16794, 28.05000, -12.60000, 62.10000, 32.39066, 4,3.83068,0.07223,0.03612,0,20, 
857030,27.97183,27615,26.51332,102.75500,703.82776,27.02937,27617,28.91509,130.18700,703.64813,8.78906, 8.30078, 1037.10940, -2.51145, 2.34351, 0.30534, 28.95000, -13.05000, 61.50000, 32.19897, 4,3.72729,0.07028,0.03514,0,20, 
874440,27.97183,27616,26.48019,103.58400,703.82776,27.03314,27617,28.86448,130.69901,703.73798,11.23047, 5.37109, 1013.67180, 3.89313, 2.04580, -0.87786, 27.45000, -12.00000, 62.25000, 32.24689, 4,3.62905,0.06843,0.03422,0,20, 
891840,27.97436,27616,26.46934,104.03600,703.82776,27.03972,27616,28.84807,130.59700,703.73798,15.13672, 1.95312, 1039.06250, 0.13740, 0.01527, 3.12977, 27.30000, -8.40000, 66.75000, 32.10312, 4,3.53612,0.06668,0.03334,0,20, 
909240,27.97720,27616,26.43644,104.36200,703.82776,27.04631,27617,28.82034,129.98399,703.64813,20.99609, 9.27734, 1034.17970, -3.64885, 2.48092, -1.80916, 27.90000, -13.05000, 61.80000, 32.24689, 5,4.30948,0.08126,0.03634,0,20, 
926650,27.97689,27615,26.43641,104.16600,703.82776,27.05227,27618,28.82084,131.42200,703.64813,16.60156, 18.55469, 1046.38670, -0.24427, -1.08397, 4.02290, 27.30000, -14.10000, 62.10000, 32.58235, 5,4.20439,0.07928,0.03546,0,20, 
944050,27.97878,27615,26.44760,104.36200,703.82776,27.05886,27617,28.82139,132.15401,703.64813,24.90234, 5.85937, 1019.04290, -3.62595, 4.88550, 1.03817, 26.25000, -11.70000, 61.35000, 32.39066, 5,4.10425,0.07739,0.03461,0,20, 
961460,27.98289,27615,26.47553,104.23100,703.91498,27.06450,27617,28.84448,131.42200,703.73798,7.81250, 6.83594, 1022.46090, 0.58015, -0.84733, 2.47328, 28.20000, -13.05000, 61.50000, 32.39066, 5,4.00882,0.07559,0.03381,0,20, 
978860,27.98542,27615,26.49781,104.68900,703.91498,27.06921,27617,28.85618,131.73500,703.73798,19.04297, 8.30078, 1022.46090, -1.58779, 3.62595, -3.62595, 27.90000, -13.80000, 61.80000, 32.39066, 7,5.48475,0.10342,0.03909,0,20, 
996291,27.98352,27615,26.49766,105.41600,703.82776,27.07203,27616,28.85076,132.78700,703.82776,4.39453, 14.16016, 1038.08590, 0.87786, -0.03817, -1.80916, 28.80000, -13.65000, 61.35000, 32.39066, 7,5.36289,0.10113,0.03822,0,20, 
1013680,27.98510,27615,26.49779,105.41600,703.91498,27.07862,27616,28.85696,132.57500,703.73798,16.11328, 10.25391, 1036.13280, -1.10687, 3.80916, -0.80916, 28.65000, -12.30000, 61.80000, 32.58235, 7,5.24613,0.09892,0.03739,0,20, 
1031100,27.99015,27615,26.52028,105.28300,703.82776,27.08677,27617,28.84634,133.42599,703.73798,26.36719, 12.69531, 1047.36330, -1.38931, 2.77099, -1.80916, 28.95000, -13.05000, 61.50000, 32.43858, 7,5.13454,0.09682,0.03659,0,20, 
1048500,27.99616,27615,26.54836,104.95200,703.91498,27.09398,27617,28.83562,132.47000,703.64813,22.94922, 10.74219, 1026.85550, -2.44275, 1.98473, -0.54198, 29.25000, -12.90000, 60.90000, 32.29482, 7,5.02759,0.09480,0.03583,0,20, 
1065900,28.00248,27615,26.60411,104.29600,703.91498,27.10057,27618,28.87011,132.57500,703.64813,2.92969, 7.81250, 1019.04290, -1.71756, 4.22137, 0.41985, 28.05000, -13.35000, 61.65000, 32.58235, 7,4.92495,0.09287,0.03510,0,20, 
1083330,28.00785,27615,26.65981,104.36200,704.00482,27.10716,27618,28.89330,132.47000,703.64813,13.18359, 16.60156, 1061.03520, 0.83969, -1.00000, 0.54962, 28.05000, -13.35000, 62.10000, 32.29482, 7,4.82648,0.09101,0.03440,0,20, 
1100721,28.01512,27615,26.70462,104.75500,703.91498,27.11312,27617,28.92774,131.00800,703.73798,20.50781, 17.57813, 1037.10940, -2.09924, 3.47328, -7.76336, 29.85000, -13.35000, 60.60000, 32.77404, 7,4.73170,0.08922,0.03372,0,20, 
1118141,28.02586,27616,26.76633,103.64900,703.82776,27.13194,27616,29.32038,121.52700,703.73798,19.53125, 5.37109, 1034.17970, 0.86260, 0.51908, 1.15267, 27.30000, -15.15000, 61.65000, 32.58235, 7,4.64083,0.08751,0.03308,0,20, 
1135520,28.03881,27616,26.89468,102.94500,703.82776,27.16957,27619,31.09977,115.05100,703.47107,8.30078, 2.44141, 1026.36720, -2.41221, 3.83206, -0.54962, 29.40000, -15.45000, 61.20000, 32.58235, 7,4.55314,0.08586,0.03245,0,20, 
1152950,28.05619,27616,27.02352,103.07200,703.91498,27.21881,27619,32.90839,113.63600,703.55829,8.78906, -4.39453, 1056.15230, 1.95420, 1.53435, -0.56489, 27.75000, -16.35000, 60.30000, 32.58235, 7,4.46894,0.08427,0.03185,0,20, 
1170350,28.07199,27615,27.13017,102.94500,704.00482,12.69531, 14.16016, 1032.22660, 0.22137, 0.76336, -2.98473, 28.20000, -16.95000, 61.50000, 32.72612, 7,4.26253,0.08038,0.03038,0,21, 
1215872,28.02712,27614,27.69924,85.72400,703.91498,26.85547, 13.18359, 1046.38670, -2.35115, 1.56489, -1.32061, 27.90000, -18.45000, 61.20000, 32.39066, 7,4.07427,0.07683,0.02904,0,26, 
1261382,27.96867,27616,27.99003,80.35800,703.82776,14.16016, 12.69531, 1029.29690, 1.37405, 0.69466, 0.59542, 27.45000, -16.20000, 61.20000, 32.72612, 7,3.90204,0.07358,0.02781,0,32, 
1306880,27.92918,27616,28.40606,74.41000,703.82776,23.92578, 1.95312, 1030.76170, 1.15267, 2.56489, 2.55725, 28.80000, -17.10000, 60.60000, 32.63028, 7,3.74365,0.07059,0.02668,0,31, 
