millis, UV [0-1023], BME_1_Temp, BME_1_Pres, BME_1_Hum, BME_1_Res, BME_1_Alt, BME_2_Temp, BME_2_Pres, BME_2_Hum, BME_2_Res, BME_2_Alt, Scaled. Acc.X, Scaled. Acc.Y, Scaled. Acc.Z, Gyr.X, Gyr.Y, Gyr.Z, Mag.X, Mag.Y, Mag.Z, Tmp, Radiation_count, counts_per_minute, uSvh, uSvhError, noiseCount, Ozone (PPB.), 
2512, 0,32.95108,32245,35.12018,7.25100,298.64566,30.31104,32286,40.58803,8.74100,295.73386,67.87109, 604.98047, -791.50385, -2.62595, 4.51908, -0.61832, -6.15000, 48.45000, -2.85000, 34.11588, 0,0.00000,0.00000,0.00000,1,0, 
4257, 0,32.78646,32260,34.92028,8.92400,297.70499,30.18589,32288,40.12023,11.21800,295.64932,62.50000, 612.30469, -785.64447, -1.61832, 3.32824, -3.41985, -7.20000, 47.55000, -1.95000, 34.16381, 0,0.00000,0.00000,0.00000,1,0, 
6001, 0,32.66923,32268,34.85527,10.62800,297.18976,30.09775,32289,39.86572,13.69800,295.56210,63.47656, 605.95703, -773.92572, -2.23664, 2.67176, -1.46565, -6.75000, 47.10000, -2.25000, 34.54719, 0,0.00000,0.00000,0.00000,1,0, 
7745, 1,32.59593,32273,34.82424,12.28400,296.76172,30.05823,32289,39.72693,16.33700,295.47757,63.96484, 599.60938, -795.41010, 0.60305, 0.32824, -2.66412, -7.50000, 47.10000, -3.00000, 34.73888, 0,0.00000,0.00000,0.00000,1,0, 
9491, 0,32.55864,32276,34.80278,13.92400,296.67450,30.04663,32289,39.62797,18.67100,295.47757,59.57031, 603.02734, -793.45697, 0.55725, 1.62595, 1.71756, -6.90000, 49.20000, -1.80000, 34.73888, 0,0.00000,0.00000,0.00000,1,0, 
11234, 0,32.54379,32277,34.78948,15.49700,296.58997,30.05165,32289,39.52482,21.01200,295.47757,62.98828, 601.07422, -778.80853, 0.65649, 2.38931, 1.22137, -6.45000, 47.55000, -2.25000, 34.40342, 0,0.00000,0.00000,0.00000,1,0, 
12980, 0,32.54000,32278,34.77142,16.87600,296.50540,30.06356,32289,39.43468,23.40200,295.56210,-95.21484, 885.74213, -534.17969, -5.46565, 12.38931, -2.65649, -2.85000, 50.40000, 13.80000, 34.64304, 0,0.00000,0.00000,0.00000,1,0, 
14724, 1,32.54443,32279,34.75418,18.36200,296.50540,30.06137,32288,39.37350,25.43000,295.56210,113.76952, 776.36713, -507.32419, 6.16794, -2.67939, 1.14504, -9.75000, 51.00000, 13.95000, 34.73888, 0,0.00000,0.00000,0.00000,1,0, 
16467, 1,32.55137,32279,34.74900,19.60400,296.41821,30.03377,32290,39.37654,27.47900,295.47757,62.98828, 819.82416, -559.57031, -1.42748, 3.50382, -0.38931, -10.80000, 49.05000, 10.65000, 34.83472, 0,0.00000,0.00000,0.00000,1,0, 
18211, 1,32.56054,32280,34.74403,20.88000,296.41821,30.01024,32291,39.39223,29.40200,295.39038,82.03124, 795.89838, -606.44531, 0.45802, 5.19084, -1.16031, -8.10000, 48.90000, 8.25000, 34.88265, 0,0.00000,0.00000,0.00000,1,0, 
19957, 1,32.56718,32279,34.73881,22.14300,296.33365,29.99550,32292,39.41499,31.30400,295.39038,20.50781, 635.74219, -736.32806, 70.89313, -4.26718, 8.09160, -7.35000, 49.65000, -1.05000, 35.07434, 0,0.00000,0.00000,0.00000,1,0, 
21698, 0,32.57444,32281,34.74543,23.22800,296.33365,29.99770,32292,39.46398,32.96600,295.39038,-11.23047, 642.08984, -780.27338, 0.65649, -1.35115, -2.51908, -7.95000, 47.10000, -3.45000, 34.88265, 0,0.00000,0.00000,0.00000,1,0, 
23442, 1,32.58108,32281,34.72253,24.37800,296.33365,30.00679,32290,39.51986,34.67000,295.39038,23.92578, 953.61322, -202.63670, -7.83206, 13.77863, -21.16031, -8.10000, 45.75000, 28.65000, 34.93057, 0,0.00000,0.00000,0.00000,1,1, 
25188, 3,32.58108,32281,34.72843,25.43200,296.33365,30.00711,32291,39.58089,36.20800,295.39038,-35.15625, 1012.20700, -116.21093, -5.97710, 9.08397, -9.90076, -9.15000, 44.55000, 35.55000, 34.93057, 0,0.00000,0.00000,0.00000,1,2, 
26932, 2,32.58329,32280,34.72276,26.44700,296.50540,29.99989,32291,39.56179,37.78700,295.39038,-107.91015, 880.37103, -368.16403, 31.27481, 8.82443, -29.74809, 0.90000, 47.85000, 20.85000, 35.07434, 0,0.00000,0.00000,0.00000,1,3, 
28678, 0,32.58740,32279,34.74086,27.25800,296.41821,29.99707,32291,39.50050,39.28600,295.47757,-99.12109, 968.74994, -245.60545, 1.66412, 2.22137, 7.80916, -4.80000, 47.25000, 27.15000, 34.93057, 0,0.00000,0.00000,0.00000,1,4, 
30419, 2,32.59467,32280,34.74159,28.35000,296.41821,29.97198,32291,39.44895,40.74800,295.39038,-67.38281, 907.22650, -331.05466, -3.25191, 3.03053, -4.74046, -2.40000, 49.35000, 22.65000, 35.07434, 0,0.00000,0.00000,0.00000,1,5, 
32165, 2,32.59972,32278,34.73621,29.24400,296.50540,29.94500,32291,39.51913,41.98100,295.47757,-22.94922, 846.67963, -349.60934, 45.12977, 14.84733, 27.50382, 0.60000, 48.90000, 17.70000, 35.07434, 0,0.00000,0.00000,0.00000,1,6, 
33909, 0,32.60446,32279,34.73669,30.02100,296.41821,29.92305,32291,39.63869,43.20200,295.47757,-193.35936, 961.91400, -247.55858, -20.92366, -11.82443, -7.93893, 2.55000, 47.70000, 30.15000, 35.21811, 0,0.00000,0.00000,0.00000,1,7, 
35655, 2,32.60825,32280,34.74297,30.95600,296.50540,29.91050,32290,39.80823,44.40100,295.47757,-192.87108, 973.14447, -174.31639, -8.40458, -12.48092, 1.87786, 1.35000, 46.95000, 31.50000, 34.93057, 0,0.00000,0.00000,0.00000,1,7, 
37398, 0,32.60857,32279,34.71942,31.78100,296.33365,29.88478,32290,40.01316,45.56800,295.39038,-188.96483, 1003.90620, -95.21484, -3.02290, 1.64122, -2.88550, 1.05000, 43.80000, 34.50000, 35.02642, 0,0.00000,0.00000,0.00000,1,8, 
39142, 1,32.60320,32280,34.72478,32.44700,296.41821,29.85906,32291,40.17547,46.69300,295.47757,-226.56248, 957.03119, -112.79296, -6.79389, -1.19847, -1.04580, 3.75000, 43.35000, 34.20000, 35.40980, 0,0.00000,0.00000,0.00000,1,9, 
40888, 2,32.59593,32279,34.74761,33.30100,296.41821,29.84558,32290,40.34543,47.19300,295.47757,-79.58984, 866.69916, -517.08984, 44.96183, -29.48855, 6.59542, 2.40000, 49.35000, 17.55000, 35.07434, 0,0.00000,0.00000,0.00000,1,10, 
42632, 1,32.58993,32279,34.76469,33.92400,296.50540,29.83962,32290,40.42443,48.65700,295.56210,-38.08594, 683.59369, -784.66791, 35.14504, -5.58015, -15.71756, -9.60000, 48.45000, 5.40000, 35.21811, 0,0.00000,0.00000,0.00000,1,11, 
44378, 1,32.58455,32280,34.76414,34.62700,296.41821,29.83836,32289,40.38138,49.64500,295.56210,44.43359, -302.73438, -1000.48820, 22.29008, 4.37405, 14.49618, 0.15000, 14.70000, -30.30000, 35.40980, 0,0.00000,0.00000,0.00000,1,12, 
46121, 1,32.58171,32280,34.78153,35.42000,296.33365,29.83868,32289,40.33852,50.61300,295.56210,-78.12500, -450.68356, -876.95306, 0.89313, 0.09924, -0.43511, 0.30000, 6.75000, -31.95000, 35.17019, 0,0.00000,0.00000,0.00000,1,13, 
47865, 3,32.58076,32280,34.79912,36.00000,296.41821,29.83335,32290,40.30117,51.42700,295.47757,-101.07421, 739.25775, -709.96088, -23.18321, -22.20611, -1.40458, -6.75000, 48.60000, 5.25000, 35.45773, 0,0.00000,0.00000,0.00000,1,14, 
49607, 0,32.57824,32279,34.80476,36.59900,296.41821,29.82425,32290,40.35530,52.63200,295.56210,60.54687, 252.44139, -869.14056, -29.30534, 7.77099, 24.78626, -6.00000, 42.45000, -12.45000, 35.07434, 0,0.00000,0.00000,0.00000,1,15, 
51353, 1,32.57665,32280,34.82818,37.38600,296.41821,29.82237,32290,40.46540,53.40900,295.56210,77.63672, 540.03906, -827.14838, -14.31298, -1.28244, -7.16031, -5.85000, 47.25000, -6.45000, 35.36188, 0,0.00000,0.00000,0.00000,1,16, 
53097, 0,32.57792,32280,34.84010,37.75800,296.41821,29.82676,32290,40.51496,54.24600,295.47757,42.48046, 590.82031, -799.80463, 0.29008, 5.06870, -2.44275, -4.95000, 48.30000, -4.80000, 35.55357, 0,0.00000,0.00000,0.00000,1,18, 
54843, 0,32.58013,32279,34.82853,38.31200,296.41821,29.83146,32289,40.52162,55.00000,295.56210,25.39062, 573.24219, -817.87103, 1.59542, 2.29771, -0.19847, -10.05000, 47.55000, -5.55000, 35.07434, 0,0.00000,0.00000,0.00000,1,20, 
56587, 0,32.58645,32280,34.84686,38.91900,296.41821,29.83774,32289,40.48553,55.92500,295.56210,33.69141, 583.00781, -788.08588, 3.20611, -0.27481, -1.63359, -9.60000, 46.20000, -5.70000, 35.21811, 0,0.00000,0.00000,0.00000,1,23, 
58330, 0,32.59403,32280,34.84763,39.32200,296.33365,29.84401,32289,40.42492,56.80400,295.56210,-131.83594, 483.39841, -753.41791, 0.07634, 13.15267, 0.13740, -9.60000, 47.25000, -5.40000, 35.55357, 0,0.00000,0.00000,0.00000,1,28, 
60077, 0,32.60035,32279,34.87186,40.00000,296.41821,29.85091,32289,40.35215,57.51100,295.56210,-39.55078, 738.28119, -834.47260, 19.17557, 31.17557, -32.68702, -10.50000, 44.85000, -5.25000, 35.45773, 0,0.00000,0.00000,0.00000,1,33, 
61819, 0,32.60825,32280,34.86677,40.54400,296.41821,29.86001,32289,40.26741,58.44100,295.56210,28.80859, 620.11719, -803.71088, 3.90076, 2.51908, 3.16794, -8.25000, 45.90000, -4.80000, 35.36188, 0,0.00000,0.00000,0.00000,1,41, 
63566, 0,32.61836,32280,34.86779,40.98100,296.33365,29.86753,32289,40.19478,58.93800,295.56210,58.59375, 597.65625, -784.66791, -1.59542, -4.98473, -3.19084, -10.05000, 45.90000, -5.85000, 35.55357, 0,0.00000,0.00000,0.00000,1,51, 
65307, 0,32.62815,32279,34.88058,41.30600,296.41821,29.87694,32290,40.11627,59.87200,295.56210,21.97265, 545.89844, -799.80463, 3.29771, 4.51908, -1.17557, -7.95000, 47.10000, -4.50000, 35.45773, 0,0.00000,0.00000,0.00000,1,62, 
67054, 0,32.64048,32279,34.89954,41.63500,296.41821,29.88823,32289,40.08082,60.39400,295.64932,41.01562, 577.14844, -838.37885, -0.64885, 1.70229, -3.22137, -6.75000, 47.10000, -4.05000, 35.55357, 0,0.00000,0.00000,0.00000,1,74, 
68795, 0,32.65312,32280,34.90082,42.43900,296.41821,29.89953,32289,40.05149,61.37500,295.64932,76.66016, 575.68359, -806.15228, -0.58015, 5.03817, -4.03053, -7.65000, 46.50000, -4.35000, 35.55357, 0,0.00000,0.00000,0.00000,1,85, 
70542, 0,32.66765,32280,34.90230,42.74300,296.41821,29.91239,32289,40.02846,61.74000,295.47757,71.28906, 966.79681, 297.36328, -4.05344, 5.56489, -11.04580, -6.75000, 33.75000, 48.00000, 35.74526, 0,0.00000,0.00000,0.00000,1,97, 
72285, 5,32.68124,32279,34.90368,42.96300,296.41821,29.92148,32290,40.01725,62.48300,295.47757,68.84766, 926.26947, 242.18748, 0.71756, 1.35878, 1.78626, -4.80000, 34.65000, 46.80000, 35.26603, 0,0.00000,0.00000,0.00000,1,108, 
74032, 5,32.69609,32280,34.91109,43.59100,296.41821,29.92587,32290,40.02385,62.86100,295.56210,110.83984, 957.03119, 307.12891, -0.35115, 0.89313, 1.05344, -4.95000, 34.05000, 47.70000, 35.21811, 0,0.00000,0.00000,0.00000,1,119, 
75774, 4,32.71062,32279,34.91847,43.86600,296.41821,29.93246,32291,40.04905,63.53300,295.47757,116.21093, 998.53510, 346.67966, 0.11450, 0.12214, -4.86260, -3.60000, 34.35000, 46.80000, 35.69734, 0,0.00000,0.00000,0.00000,1,129, 
77518, 5,32.72485,32280,34.93171,44.19100,296.33365,29.94030,32290,40.07440,63.82600,295.47757,250.97655, 1289.06240, 401.85544, -1.97710, 7.57252, -6.54198, -14.55000, 39.90000, 39.00000, 35.60149, 0,0.00000,0.00000,0.00000,1,139, 
79264, 4,32.73780,32280,34.92713,44.66300,296.41821,29.94940,32289,40.10601,64.67000,295.56210,102.53905, 993.65228, 357.91013, 8.32061, -5.79389, -3.13740, -13.20000, 37.80000, 40.65000, 35.45773, 0,0.00000,0.00000,0.00000,1,147, 
81008, 2,32.75107,32279,34.93438,45.00000,296.41821,29.96069,32289,40.11339,65.38200,295.47757,23.92578, 696.77728, 436.52341, -13.09924, 7.89313, 7.78626, -15.15000, 38.10000, 38.85000, 35.88903, 0,0.00000,0.00000,0.00000,1,155, 
82753, 3,32.76402,32279,34.93570,45.34200,296.41821,29.97135,32290,40.10847,65.64000,295.39038,76.17188, 985.83978, 292.96875, -1.70992, 3.61832, -3.07634, -14.85000, 38.70000, 40.05000, 35.60149, 0,0.00000,0.00000,0.00000,1,162, 
84496, 4,32.77603,32278,34.93693,45.63900,296.50540,29.98233,32291,40.08521,66.05800,295.39038,91.30859, 970.70306, 290.03906, -4.99237, 1.15267, -0.59542, -13.05000, 37.20000, 37.95000, 35.55357, 0,0.00000,0.00000,0.00000,1,169, 
86243, 4,32.78898,32278,34.93234,45.79000,296.41821,29.99425,32291,40.03761,66.48000,295.47757,107.42187, 959.47260, 263.67188, 0.80153, 10.85496, 2.90840, -21.00000, 37.80000, 37.35000, 35.74526, 0,0.00000,0.00000,0.00000,1,175, 
87986, 4,32.80226,32279,34.92779,46.19500,296.41821,30.00397,32290,39.97753,67.07000,295.47757,-109.86327, 897.94916, 251.95311, 4.22901, 4.48855, -5.94656, -18.45000, 38.10000, 38.40000, 35.69734, 0,0.00000,0.00000,0.00000,1,180, 
89733, 4,32.81426,32279,34.93491,46.34900,296.50540,30.01118,32290,39.92942,67.72600,295.47757,-4.88281, 932.61713, 272.46094, -7.60305, 8.64886, -10.50382, -18.45000, 39.30000, 36.60000, 35.69734, 0,0.00000,0.00000,0.00000,1,184, 
91476, 2,32.82564,32278,34.93017,46.81600,296.41821,30.01558,32290,39.89935,68.11500,295.56210,196.28905, 990.23431, 383.30075, 0.61069, -0.58779, -0.08397, -16.05000, 38.70000, 37.95000, 35.74526, 0,0.00000,0.00000,0.00000,1,187, 
93219, 4,32.83765,32279,34.93139,47.02500,296.41821,30.01965,32290,39.86924,68.67700,295.47757,54.19921, 943.35931, 282.22656, -2.46565, 8.36641, 2.53435, -18.45000, 36.60000, 38.10000, 35.93695, 0,0.00000,0.00000,0.00000,1,186, 
94966, 4,32.84807,32279,34.91475,47.21100,296.50540,30.02342,32291,39.86355,69.25000,295.47757,121.58202, 952.63666, 306.64063, -3.47328, -2.49618, -2.22901, -19.35000, 39.90000, 39.30000, 35.74526, 0,0.00000,0.00000,0.00000,1,185, 
96710, 3,32.85976,32278,34.90413,47.56100,296.58997,30.02969,32290,39.89481,69.71400,295.47757,91.30859, 974.60931, 274.41406, 4.77099, 0.23664, 2.51145, -10.35000, 34.65000, 45.00000, 36.08072, 0,0.00000,0.00000,0.00000,1,180, 
98456, 3,32.87114,32278,34.91119,47.83300,296.50540,30.03722,32289,39.90788,69.83100,295.47757,129.39453, 729.00385, 87.89062, -3.80916, 2.64122, 6.45038, -5.85000, 35.85000, 45.30000, 35.93695, 0,0.00000,0.00000,0.00000,1,174, 
100198, 4,32.88314,32279,34.91241,48.13700,296.41821,30.04820,32289,39.94577,70.12600,295.56210,103.51562, 929.68744, 288.08594, 1.01527, -1.18321, 5.93893, -4.95000, 36.00000, 46.95000, 36.12864, 0,0.00000,0.00000,0.00000,1,166, 
101944, 4,32.89326,32279,34.91345,48.30400,296.50540,30.05635,32288,39.97113,70.48300,295.64932,94.72655, 985.83978, 317.38281, 1.37405, -1.12977, 1.97710, -17.85000, 35.25000, 39.00000, 35.74526, 0,0.00000,0.00000,0.00000,1,157, 
103688, 5,32.90400,32279,34.91454,48.67000,296.41821,30.06074,32289,39.98998,70.72300,295.56210,115.23437, 927.73431, 180.17577, 2.29771, 3.74046, 3.18321, -17.70000, 35.10000, 38.10000, 35.93695, 0,0.00000,0.00000,0.00000,1,149, 
105434, 5,32.91506,32280,34.90976,48.78400,296.33365,30.06200,32290,39.95343,71.57500,295.47757,187.49998, 982.91010, 328.12497, 1.85496, -0.96947, -0.27481, -15.30000, 31.05000, 44.85000, 35.79318, 0,0.00000,0.00000,0.00000,1,139, 
107177, 4,32.92675,32279,34.89324,49.10000,296.50540,30.06764,32290,39.93571,72.25900,295.56210,64.45313, 908.69135, 350.09763, 3.20611, -0.44275, 0.40458, -17.40000, 36.60000, 37.65000, 35.69734, 0,0.00000,0.00000,0.00000,1,130, 
108923, 4,32.93907,32279,34.90040,49.39100,296.33365,30.07580,32289,39.88772,72.32200,295.56210,95.21484, 964.35541, 304.68750, 1.06870, 0.83206, 4.05344, -15.60000, 36.45000, 36.75000, 35.88903, 0,0.00000,0.00000,0.00000,1,121, 
110667, 4,32.95108,32279,34.89573,49.62600,296.50540,30.08270,32288,39.85793,72.51200,295.56210,124.51171, 957.03119, 306.15234, -2.74046, 1.48855, -3.58015, -17.70000, 36.15000, 37.65000, 36.22449, 0,0.00000,0.00000,0.00000,1,114, 
112411, 4,32.96151,32278,34.89088,49.62600,296.50540,30.08834,32288,39.82800,72.63800,295.56210,95.21484, 910.64447, 202.14842, -0.75573, -1.03053, 0.25954, -18.30000, 36.75000, 36.75000, 36.08072, 0,0.00000,0.00000,0.00000,1,106, 
114157, 4,32.97099,32279,34.89185,49.95300,296.41821,30.09713,32289,39.82287,73.47300,295.47757,135.74219, 959.47260, 295.41016, -0.40458, -0.59542, 3.58779, -15.15000, 36.15000, 38.40000, 36.12864, 0,0.00000,0.00000,0.00000,1,100, 
115899, 5,32.98109,32279,34.88697,50.22300,296.41821,30.10434,32289,39.75647,73.53800,295.56210,48.33984, 957.03119, 320.31250, -2.25191, -1.04580, 0.61069, -15.90000, 37.80000, 38.40000, 35.93695, 0,0.00000,0.00000,0.00000,1,94, 
117643, 3,32.99310,32279,34.88820,50.61900,296.41821,30.11030,32289,39.70218,73.79900,295.56210,75.68359, 945.80072, 295.89844, -2.30534, 2.76336, -1.19084, -16.05000, 36.45000, 38.25000, 36.08072, 0,0.00000,0.00000,0.00000,1,88, 
119387, 5,33.00385,32278,34.87748,50.80400,296.58997,30.11908,32288,39.65431,74.32700,295.47757,136.71875, 982.42181, 322.75388, -1.37405, 1.51908, -1.78626, -16.80000, 34.95000, 39.75000, 36.12864, 0,0.00000,0.00000,0.00000,1,83, 
121134, 4,33.01427,32277,34.87855,50.92800,296.58997,30.12629,32289,39.60629,74.66100,295.56210,29.78515, 959.47260, 276.85547, -1.64885, -0.79389, 8.54198, -15.30000, 37.50000, 39.30000, 36.22449, 0,0.00000,0.00000,0.00000,1,79, 
122876, 3,33.02628,32278,34.87387,51.08400,296.58997,30.13163,32288,39.55196,74.39400,295.56210,76.66016, 930.17572, 350.58591, -1.98473, 5.66412, -5.95420, -14.70000, 35.85000, 37.05000, 35.93695, 0,0.00000,0.00000,0.00000,1,74, 
124623, 3,33.03797,32279,34.87505,51.39900,296.41821,30.13853,32289,39.52833,74.66100,295.47757,94.72655, 982.42181, 283.69141, 2.81679, 0.26718, 1.24427, -15.60000, 36.75000, 39.00000, 36.12864, 0,0.00000,0.00000,0.00000,1,69, 
126367, 4,33.05124,32279,34.87641,51.46200,296.41821,30.14480,32289,39.50462,74.72800,295.47757,146.48438, 963.86713, 304.68750, -0.15267, -7.90840, -1.62595, -15.15000, 35.85000, 38.85000, 36.22449, 0,0.00000,0.00000,0.00000,1,64, 
128236, 3,33.05503,32278,34.87089,50.95900,296.50540,30.14260,32289,39.49218,74.32700,295.56210,79.58984, 956.54291, 315.42969, 3.92366, 0.45038, 3.74809, -13.80000, 37.20000, 37.95000, 36.22449, 0,0.00000,0.00000,0.00000,1,60, 
129980, 3,33.06483,32278,34.87188,51.55800,296.50540,30.14825,32290,39.48671,74.86300,295.47757,74.70703, 933.59369, 299.31641, 2.24427, -2.99237, -4.90076, -13.05000, 37.50000, 37.20000, 35.98487, 0,0.00000,0.00000,0.00000,1,56, 
131722, 3,33.08094,32279,34.84992,51.91000,296.50540,30.15734,32289,39.48161,75.33800,295.47757,67.38281, 961.91400, 289.55078, -0.01527, 1.01527, -0.20611, -13.65000, 36.60000, 38.40000, 35.98487, 0,0.00000,0.00000,0.00000,1,52, 
133468, 3,33.09516,32278,34.85726,52.17000,296.50540,30.16707,32290,39.45830,75.95700,295.56210,112.30468, 984.37494, 317.38281, -0.96947, 3.13740, -3.42748, -15.15000, 38.10000, 38.85000, 36.32034, 0,0.00000,0.00000,0.00000,1,49, 
135212, 3,33.10843,32279,34.85862,52.30100,296.41821,30.17523,32289,39.42872,76.09600,295.56210,86.42577, 931.15228, 335.44919, 1.58779, 1.16031, 1.38168, -14.85000, 35.25000, 38.55000, 36.32034, 0,0.00000,0.00000,0.00000,1,46, 
136955, 3,33.12075,32279,34.85397,52.30100,296.41821,30.18432,32288,39.39924,76.37600,295.64932,72.26563, 940.91791, 286.13281, -2.90076, 1.38931, 2.32824, -15.15000, 37.05000, 39.15000, 36.27241, 0,0.00000,0.00000,0.00000,1,43, 
138699, 3,33.13245,32280,34.85516,52.76400,296.41821,30.19184,32288,39.36960,76.79900,295.56210,79.58984, 953.61322, 311.03516, -0.95420, 1.68702, -5.64885, -13.95000, 35.10000, 38.10000, 36.32034, 0,0.00000,0.00000,0.00000,1,41, 
140446, 4,33.14351,32279,34.83858,52.66400,296.50540,30.19875,32288,39.35817,76.94100,295.56210,86.91405, 969.23822, 286.13281, -3.46565, 2.62595, 1.64122, -12.90000, 38.10000, 36.60000, 36.22449, 0,0.00000,0.00000,0.00000,1,38, 
142189, 3,33.15551,32279,34.83390,53.03200,296.41821,30.20408,32288,39.33439,77.01300,295.64932,116.21093, 1000.97650, 285.64453, -1.17557, 2.64885, 2.72519, -15.30000, 36.45000, 36.00000, 36.41618, 0,0.00000,0.00000,0.00000,1,36, 
143936, 3,33.16689,32278,34.82325,53.13400,296.50540,30.21161,32288,39.31085,77.37100,295.64932,90.82030, 960.93744, 298.82813, 3.06107, 0.92366, -2.49618, -12.90000, 37.05000, 37.35000, 36.27241, 0,0.00000,0.00000,0.00000,1,34, 
145678, 2,33.17921,32279,34.81270,53.30300,296.50540,30.21819,32288,39.30548,77.66000,295.56210,78.61328, 963.37885, 302.24609, -3.12214, 0.88550, -2.78626, -13.65000, 37.80000, 38.40000, 36.41618, 0,0.00000,0.00000,0.00000,1,32, 
147421, 3,33.19154,32279,34.81985,53.40600,296.41821,30.22478,32288,39.28794,77.51500,295.56210,120.11718, 945.31244, 262.69531, 0.16031, -1.54198, 4.02290, -13.05000, 36.45000, 37.95000, 36.32034, 0,0.00000,0.00000,0.00000,1,29, 
149168, 3,33.20291,32280,34.81511,53.47400,296.33365,30.23168,32289,39.27042,77.95200,295.56210,87.40234, 951.17181, 291.50391, -1.38931, 2.23664, -0.79389, -15.15000, 35.10000, 40.95000, 36.32034, 0,0.00000,0.00000,0.00000,1,27, 
150912, 3,33.21555,32280,34.81050,53.75000,296.41821,30.23764,32289,39.28326,77.95200,295.56210,65.91797, 981.93353, 293.94531, -4.41221, -0.41985, 5.31298, -14.40000, 37.80000, 37.05000, 36.12864, 0,0.00000,0.00000,0.00000,1,25, 
152657, 2,33.22692,32279,34.80575,53.64600,296.41821,30.24266,32288,39.27163,78.39300,295.64932,119.62890, 959.47260, 297.36328, -1.48855, 0.10687, -0.35115, -14.85000, 36.45000, 37.20000, 36.22449, 0,0.00000,0.00000,0.00000,1,24, 
154395, 3,33.24083,32278,34.79536,53.88900,296.41821,30.24862,32287,39.27229,78.24500,295.73386,4.39453, 923.33978, 257.81250, 3.80153, 2.12214, -1.68702, -14.85000, 37.95000, 37.50000, 36.22449, 0,0.00000,0.00000,0.00000,1,22, 
156141, 4,33.25156,32278,34.79055,53.85400,296.50540,30.25238,32287,39.24834,78.83900,295.73386,80.07813, 938.96478, 325.68356, 1.01527, -2.93130, -3.26718, -13.50000, 37.50000, 37.20000, 36.32034, 0,0.00000,0.00000,0.00000,1,21, 
157885, 3,33.26263,32278,34.78578,54.09800,296.50540,30.25772,32288,39.25502,78.83900,295.64932,26.36719, 970.21478, 258.78906, -0.05344, 3.08397, -0.10687, -14.40000, 37.80000, 36.60000, 36.32034, 0,0.00000,0.00000,0.00000,0,20, 
159630, 3,33.27400,32278,34.78103,54.34500,296.50540,30.26304,32289,39.24951,78.69000,295.56210,128.41797, 973.14447, 278.80859, 1.54198, 1.08397, 3.12977, -14.40000, 37.35000, 38.40000, 36.22449, 0,0.00000,0.00000,0.00000,0,20, 
161373, 4,33.28443,32279,34.77029,54.48700,296.50540,30.26775,32288,39.23176,79.21400,295.64932,50.78125, 930.17572, 315.42969, -9.57252, -6.23664, 12.00763, -8.25000, 35.25000, 40.80000, 36.51202, 0,0.00000,0.00000,0.00000,0,20, 
163119, 3,33.29644,32278,34.77741,54.59400,296.58997,30.27308,32288,39.22017,79.06400,295.73386,70.31250, 1001.95310, 302.24609, -3.06870, 0.38931, -0.41221, -14.25000, 35.70000, 38.25000, 36.32034, 0,0.00000,0.00000,0.00000,0,20, 
164861, 4,33.30750,32277,34.76674,54.66500,296.58997,30.27716,32287,39.21452,79.29000,295.64932,62.01171, 986.32806, 290.03906, 0.89313, 12.39695, 8.65649, -13.20000, 35.85000, 39.15000, 36.60787, 0,0.00000,0.00000,0.00000,0,20, 
166604, 4,33.31824,32277,34.76783,54.70100,296.58997,30.28186,32288,39.19069,79.59400,295.64932,92.77343, 971.67963, 285.15625, -0.59542, 3.52672, -4.11450, -12.45000, 36.60000, 39.45000, 36.27241, 0,0.00000,0.00000,0.00000,0,20, 
168349, 4,33.32898,32277,34.76892,54.91700,296.58997,30.28531,32288,39.23978,79.59400,295.64932,77.14844, 933.10541, 300.78125, 0.47328, 2.03053, -2.49618, -10.05000, 36.45000, 38.55000, 36.65579, 0,0.00000,0.00000,0.00000,0,20, 
170092, 3,33.34035,32276,34.75828,55.06200,296.67450,30.28939,32288,39.30724,79.82300,295.64932,42.96875, 964.84369, 289.06250, -1.83206, 3.96947, 2.48855, -15.60000, 33.00000, 41.55000, 36.60787, 0,0.00000,0.00000,0.00000,0,20, 
171838, 3,33.35141,32276,34.75351,55.09800,296.58997,30.29441,32287,39.35044,79.90000,295.73386,91.30859, 956.54291, 287.10938, 0.57252, -0.69466, 2.15267, -12.75000, 36.45000, 38.55000, 36.32034, 0,0.00000,0.00000,0.00000,0,20, 
173581, 3,33.36279,32277,34.73695,55.20800,296.58997,30.30005,32286,39.33278,80.05400,295.73386,115.23437, 930.17572, 253.41795, 3.87786, -2.15267, 0.61069, -12.45000, 37.05000, 36.60000, 36.75164, 0,0.00000,0.00000,0.00000,0,20, 
175326, 3,33.37416,32278,34.74401,55.24400,296.58997,30.30570,32287,39.29076,80.36300,295.73386,77.14844, 751.95306, 323.73044, 1.83969, 1.00763, -4.18321, -12.75000, 37.50000, 39.75000, 36.60787, 0,0.00000,0.00000,0.00000,0,20, 
177069, 3,33.38586,32277,34.72159,55.42800,296.67450,30.31009,32287,39.26688,79.97700,295.73386,426.26950, 1032.71480, 330.07809, 27.30534, 7.01527, -15.59542, -12.00000, 36.45000, 39.00000, 36.46410, 0,0.00000,0.00000,0.00000,0,20, 
178814, 3,33.39754,32276,34.73458,55.57600,296.67450,30.31448,32286,39.22473,80.75400,295.73386,140.62500, 947.75385, 277.34375, -1.11450, 3.01527, -4.66412, -12.00000, 37.50000, 38.55000, 36.32034, 0,0.00000,0.00000,0.00000,0,20, 
180557, 3,33.40987,32276,34.74174,55.57600,296.58997,30.32044,32287,39.19493,80.36300,295.64932,131.34766, 960.93744, 317.38281, -3.53435, -2.96947, -0.77863, -13.80000, 38.25000, 37.95000, 36.51202, 0,0.00000,0.00000,0.00000,0,20, 
182298, 3,33.42061,32277,34.72513,55.65000,296.58997,30.32358,32287,39.15874,80.83200,295.64932,92.28515, 944.82416, 305.17578, 0.02290, 0.78626, -0.73282, -12.30000, 34.05000, 39.00000, 36.75164, 0,0.00000,0.00000,0.00000,0,20, 
184043, 3,33.43104,32277,34.70849,55.72400,296.50540,30.32640,32287,39.12253,80.75400,295.73386,118.65234, 951.66010, 254.88280, 0.40458, -5.17557, -7.02290, -13.20000, 38.10000, 38.85000, 36.51202, 0,0.00000,0.00000,0.00000,0,20, 
185786, 3,33.44305,32277,34.71561,55.79900,296.58997,30.33080,32287,39.08650,81.46600,295.64932,116.21093, 962.40228, 306.64063, -1.02290, 2.45802, -1.65649, -13.80000, 37.95000, 37.50000, 36.41618, 0,0.00000,0.00000,0.00000,0,20, 
187532, 3,33.45221,32277,34.71064,55.94800,296.58997,30.33456,32287,39.05041,81.86700,295.64932,119.62890, 943.35931, 312.01172, -1.95420, -1.87786, 3.37405, -12.45000, 37.05000, 37.65000, 36.41618, 0,0.00000,0.00000,0.00000,0,20, 
189273, 3,33.46548,32277,34.70019,55.94800,296.50540,30.34020,32288,39.02670,81.62600,295.64932,83.49609, 967.28510, 296.87500, 0.08397, 1.17557, -0.38168, -11.85000, 37.35000, 38.10000, 36.65579, 0,0.00000,0.00000,0.00000,0,20, 
191016, 3,33.47654,32278,34.70132,56.02300,296.58997,30.34459,32288,39.02718,81.70600,295.64932,97.16796, 970.70306, 312.98828, 6.12977, 6.82443, -11.61069, -5.55000, 34.65000, 48.30000, 36.75164, 0,0.00000,0.00000,0.00000,0,20, 
192759, 3,33.48697,32277,34.69057,56.21200,296.58997,30.34867,32288,38.99721,81.94800,295.64932,55.17578, 958.00775, 228.51561, -22.62595, 2.78626, 27.00763, -5.70000, 36.00000, 48.45000, 36.79956, 0,0.00000,0.00000,0.00000,0,20, 
194502, 3,33.49739,32277,34.68573,56.28800,296.58997,30.35337,32287,38.97948,82.02900,295.73386,102.53905, 961.42572, 304.19922, 1.67939, 2.32824, 1.42748, -5.55000, 35.85000, 46.05000, 36.46410, 0,0.00000,0.00000,0.00000,0,20, 
196245, 2,33.50877,32277,34.68689,56.40200,296.50540,30.35746,32286,38.96777,82.02900,295.73386,122.55859, 973.14447, 391.11325, 16.54198, -15.47328, -15.97710, -5.10000, 33.90000, 47.10000, 36.75164, 0,0.00000,0.00000,0.00000,0,20, 
197991, 3,33.51920,32277,34.68205,56.40200,296.67450,30.36090,32286,38.93774,82.19100,295.81842,157.22656, 972.65619, 351.07419, -0.51145, 1.62595, -0.80153, -4.80000, 34.65000, 46.80000, 36.65579, 0,0.00000,0.00000,0.00000,0,20, 
199732, 3,33.53120,32276,34.67737,56.51700,296.58997,30.36561,32287,38.93826,82.19100,295.64932,82.03124, 963.37885, 301.75781, -0.86260, 15.29008, 2.19847, -3.75000, 36.00000, 47.70000, 36.75164, 0,0.00000,0.00000,0.00000,0,20, 
201475, 3,33.54068,32277,34.67243,56.70900,296.58997,30.36937,32287,38.93259,81.94800,295.64932,282.71484, 1111.32810, 655.27338, -0.06107, -0.06107, 12.83969, -3.60000, 36.15000, 48.30000, 36.65579, 0,0.00000,0.00000,0.00000,0,20, 
203218, 3,33.55016,32278,34.64980,56.70900,296.58997,30.37439,32287,38.92707,81.94800,295.64932,217.77342, 916.01556, 341.30856, -4.42748, 0.56489, -18.74046, -4.80000, 33.60000, 48.90000, 36.79956, 0,0.00000,0.00000,0.00000,0,20, 
204959, 3,33.56217,32278,34.65691,56.74700,296.50540,30.37847,32288,38.92751,82.59900,295.64932,20.01953, 409.17966, 914.55072, -100.26717, 10.17557, -0.85496, -2.40000, -1.20000, 60.75000, 36.65579, 0,0.00000,0.00000,0.00000,0,20, 
206704, 8,33.57291,32278,34.65211,56.86300,296.50540,30.37941,32288,38.93977,82.27200,295.56210,23.43750, 96.19140, 1019.04290, -2.91603, 1.23664, 0.80916, -2.40000, -17.70000, 57.15000, 36.65579, 0,0.00000,0.00000,0.00000,0,20, 
208447, 12,33.58239,32277,34.64127,56.94100,296.50540,30.38254,32288,38.98877,82.27200,295.64932,-10.25391, 83.49609, 1012.69530, -24.90076, 4.02290, -2.89313, -2.55000, -17.55000, 56.55000, 36.65579, 0,0.00000,0.00000,0.00000,0,20, 
210193, 12,33.59282,32278,34.63053,56.94100,296.41821,30.38600,32288,39.03172,82.19100,295.73386,22.46094, 90.33202, 1044.43360, 6.36641, 2.35115, 1.00000, -2.55000, -17.85000, 55.50000, 36.65579, 0,0.00000,0.00000,0.00000,0,20, 
211936, 12,33.60261,32278,34.63742,56.94100,296.41821,30.38788,32287,39.12929,81.94800,295.64932,1.46484, 76.66016, 984.86322, 15.80153, 4.06107, -7.24427, -2.40000, -15.75000, 55.65000, 36.79956, 0,0.00000,0.00000,0.00000,0,20, 
213680, 12,33.61367,32279,34.62675,57.13600,296.41821,30.38913,32288,39.23294,82.35400,295.56210,10.25391, 139.64844, 927.73431, 15.31298, 2.06107, 7.80916, -0.60000, -16.80000, 56.55000, 36.65579, 0,0.00000,0.00000,0.00000,0,20, 
215422, 11,33.62379,32279,34.62188,57.09700,296.41821,30.39227,32288,39.30639,82.59900,295.64932,-100.09765, 55.17578, 1123.04690, -16.09160, 8.31298, -3.10687, -0.30000, -20.55000, 55.50000, 36.46410, 0,0.00000,0.00000,0.00000,0,20, 
217167, 10,33.63295,32278,34.61691,57.13600,296.50540,30.39352,32288,39.37968,82.43500,295.64932,37.10938, 77.63672, 967.77338, -19.81679, 14.74046, -3.02290, -1.35000, -19.80000, 56.25000, 36.60787, 0,0.00000,0.00000,0.00000,0,20, 
218910, 7,33.64148,32278,34.60598,57.29300,296.50540,30.39446,32288,39.40417,82.76400,295.64932,151.36719, 1208.98440, 406.24997, 21.28244, -2.37405, -16.08397, -1.65000, 37.20000, 45.90000, 36.60787, 0,0.00000,0.00000,0.00000,0,20, 
220653, 3,33.64906,32278,34.61265,57.25400,296.58997,30.39635,32287,39.39218,82.43500,295.64932,179.19920, 1000.48820, 329.10153, 8.38168, 7.04580, -15.18321, -3.45000, 36.75000, 47.40000, 36.75164, 0,0.00000,0.00000,0.00000,0,20, 
222399, 4,33.65601,32277,34.60155,57.37200,296.50540,30.39917,32287,39.37420,82.76400,295.64932,61.03515, 965.33197, 274.41406, -1.86260, 3.40458, -3.05344, -1.95000, 36.00000, 48.00000, 36.60787, 0,0.00000,0.00000,0.00000,0,20, 
224142, 12,33.66518,32278,34.60249,57.37200,296.50540,30.40262,32287,39.37458,82.59900,295.73386,143.55469, 918.94525, 283.20313, 10.89313, 0.73282, 1.40458, -2.85000, 35.85000, 45.75000, 36.75164, 0,0.00000,0.00000,0.00000,0,20, 
225887, 50,33.67308,32277,34.59150,57.53000,296.58997,30.40450,32287,39.34431,82.92900,295.64932,-139.16016, 81.54296, 324.70700, -23.58015, 67.77863, 7.82443, -3.00000, 35.25000, 47.40000, 36.75164, 0,0.00000,0.00000,0.00000,0,20, 
227630, 59,33.68192,32277,34.59239,57.41100,296.58997,30.40858,32288,39.29601,82.27200,295.64932,103.02734, 1006.83590, 333.00778, -1.70992, 6.95420, 6.09160, -7.50000, 34.95000, 48.75000, 36.65579, 0,0.00000,0.00000,0.00000,0,20, 
229376, 57,33.68982,32277,34.57550,57.68900,296.58997,30.41203,32288,39.26592,82.59900,295.64932,-486.32809, 1218.75000, 2.92969, 27.06870, -32.73283, -18.24427, 16.05000, 29.10000, 43.35000, 36.65579, 0,0.00000,0.00000,0.00000,0,20, 
231116, 53,33.69836,32277,34.57636,57.64900,296.58997,30.41548,32288,39.20539,83.01200,295.64932,-5.37109, 1000.48820, 232.91014, 3.23664, -1.98473, 1.54962, -0.45000, 35.70000, 45.15000, 36.51202, 0,0.00000,0.00000,0.00000,0,20, 
232862, 48,33.70783,32277,34.57732,57.72900,296.58997,30.41861,32287,39.18138,83.09500,295.64932,-22.46094, 955.56635, 300.29297, -3.87023, 2.71756, -2.75573, -1.95000, 34.50000, 44.10000, 36.75164, 0,0.00000,0.00000,0.00000,0,20, 
234605, 54,33.71731,32277,34.57239,57.84900,296.67450,30.42175,32288,39.13910,83.26100,295.73386,-11.23047, 952.63666, 251.46483, -2.05344, 4.29771, -0.80916, -3.75000, 33.30000, 45.15000, 37.03918, 0,0.00000,0.00000,0.00000,0,20, 
236350, 52,33.72616,32277,34.57329,57.84900,296.58997,30.42489,32287,39.08466,83.17800,295.64932,19.53125, 969.23822, 257.81250, -1.15267, 3.89313, -0.80916, -3.00000, 35.70000, 46.65000, 36.79956, 0,0.00000,0.00000,0.00000,0,20, 
238093, 52,33.73595,32277,34.55658,57.97000,296.58997,30.42771,32287,39.03629,83.09500,295.64932,348.14450, 1469.23820, 852.53900, -11.93130, 12.31298, 4.45038, -13.65000, 36.15000, 42.45000, 36.75164, 0,0.00000,0.00000,0.00000,0,20, 
239836, 40,33.74575,32276,34.55168,58.17200,296.58997,30.42928,32288,39.00605,83.59600,295.64932,236.32811, 928.71088, 194.82420, 3.51145, 57.13741, 18.25191, -6.60000, 35.85000, 48.30000, 36.94333, 0,0.00000,0.00000,0.00000,0,20, 
241582, 55,33.75365,32276,34.54658,57.88900,296.67450,30.43367,32287,39.01262,83.09500,295.64932,66.40625, 938.96478, 280.76172, -0.53435, 4.85496, -0.13740, -6.90000, 35.85000, 47.55000, 36.84748, 0,0.00000,0.00000,0.00000,0,20, 
243324, 55,33.76281,32276,34.53572,58.13100,296.67450,30.43712,32287,39.00691,83.51200,295.64932,82.51952, 940.91791, 277.83203, 5.70992, -4.96947, -11.21374, -6.75000, 36.00000, 47.70000, 37.03918, 0,0.00000,0.00000,0.00000,0,20, 
245069, 55,33.77229,32276,34.53079,58.21200,296.67450,30.43932,32287,39.00714,83.93400,295.73386,64.45313, 911.13275, 234.86327, -1.09924, -0.01527, -2.23664, -5.55000, 37.05000, 48.30000, 36.60787, 0,0.00000,0.00000,0.00000,0,20, 
246812, 12,33.78335,32276,34.53191,58.49800,296.67450,30.44371,32287,39.00155,84.10300,295.64932,127.92968, 973.63275, 187.98827, 3.27481, 1.53435, 2.77099, -5.55000, 36.15000, 46.80000, 36.94333, 0,0.00000,0.00000,0.00000,0,20, 
248569, 54,33.79409,32277,34.51530,58.13100,296.67450,30.44496,32287,39.00168,83.34500,295.73386,63.96484, 967.28510, 296.38672, -0.06870, 0.33588, -1.58015, -6.75000, 34.05000, 46.20000, 37.13503, 0,0.00000,0.00000,0.00000,0,20, 
250314, 54,33.80452,32276,34.50457,58.49800,296.67450,30.44747,32288,39.02629,83.93400,295.64932,41.50390, 941.89447, 227.05077, -3.66412, 1.19084, -0.34351, -6.60000, 34.65000, 46.05000, 36.79956, 0,0.00000,0.00000,0.00000,0,20, 
252062, 55,33.81558,32277,34.51159,58.21200,296.58997,30.45029,32288,39.03877,83.84900,295.64932,72.26563, 963.86713, 291.01563, 0.09924, 2.31298, -1.38931, -6.00000, 35.25000, 47.70000, 36.94333, 0,0.00000,0.00000,0.00000,0,20, 
253807, 56,33.82822,32278,34.50108,58.33400,296.50540,30.45249,32287,39.03902,84.36000,295.73386,-83.00780, 997.55853, 228.51561, -6.29008, 11.72519, 0.84733, 4.05000, 37.35000, 43.95000, 37.03918, 0,0.00000,0.00000,0.00000,0,20, 
255552, 47,33.83865,32278,34.50213,58.53900,296.50540,30.45469,32286,39.01492,84.27400,295.64932,66.89453, 975.09760, 286.13281, -1.96183, 2.61069, -4.09924, -4.95000, 35.70000, 46.95000, 36.94333, 0,0.00000,0.00000,0.00000,0,20, 
257300, 55,33.85065,32278,34.48566,58.45700,296.50540,30.45751,32287,38.99090,84.79000,295.73386,62.01171, 971.67963, 254.88280, 2.74046, -1.14504, -0.28244, -3.60000, 36.60000, 46.05000, 36.94333, 0,0.00000,0.00000,0.00000,0,20, 
259045, 55,33.86329,32278,34.46925,58.58000,296.50540,30.46002,32286,38.98509,84.61700,295.73386,47.85156, 969.72650, 270.01953, 1.10687, 1.83206, -0.76336, -2.70000, 36.00000, 47.40000, 36.79956, 0,0.00000,0.00000,0.00000,0,20, 
260793, 55,33.87466,32278,34.47630,58.49800,296.50540,30.46315,32286,38.95502,84.70300,295.73386,65.42969, 962.89056, 266.60156, -0.51908, 1.36641, 1.93893, -3.00000, 35.70000, 48.45000, 36.75164, 0,0.00000,0.00000,0.00000,0,20, 
262538, 52,33.88604,32279,34.46566,58.66200,296.41821,30.46566,32286,38.95530,85.13700,295.73386,61.52343, 961.91400, 272.46094, 1.80916, 1.06870, 0.32061, -3.30000, 36.15000, 49.35000, 36.99125, 0,0.00000,0.00000,0.00000,0,20, 
264286, 9,33.89615,32279,34.46079,58.70400,296.50540,30.46817,32287,38.96774,85.31200,295.73386,47.85156, 955.56635, 249.02342, -5.06870, 1.03053, -2.18321, -3.00000, 36.00000, 46.95000, 36.99125, 0,0.00000,0.00000,0.00000,0,20, 
266029, 54,33.90974,32278,34.45037,58.41600,296.41821,30.47037,32287,38.96798,85.57500,295.73386,42.96875, 993.65228, 266.11328, 0.27481, -0.76336, 2.06870, -3.60000, 38.10000, 46.50000, 37.13503, 0,0.00000,0.00000,0.00000,0,20, 
267774, 54,33.92207,32279,34.44573,58.78600,296.41821,30.47068,32287,38.99842,86.01800,295.73386,20.01953, 970.70306, 286.62109, 4.75573, 0.23664, -5.05344, -2.40000, 36.00000, 47.70000, 36.79956, 0,0.00000,0.00000,0.00000,0,20, 
269519, 51,33.93280,32279,34.43503,58.82800,296.41821,30.47194,32287,39.04723,86.37600,295.73386,108.88671, 907.71478, 207.03123, 6.60305, 4.10687, 11.91603, -3.00000, 36.45000, 46.95000, 36.94333, 0,0.00000,0.00000,0.00000,0,20, 
271267, 56,33.94291,32278,34.43016,58.95300,296.50540,30.47382,32287,39.06570,86.37600,295.64932,265.62500, 955.56635, 270.99609, 5.45038, -2.41985, -2.16031, -2.55000, 35.40000, 48.60000, 36.94333, 0,0.00000,0.00000,0.00000,0,20, 
273012, 61,33.95713,32278,34.42570,58.95300,296.50540,30.47476,32287,39.08405,86.55600,295.73386,53.71093, 913.57416, 160.15625, 12.04580, 2.58015, -8.41221, -4.05000, 36.60000, 46.80000, 36.84748, 0,0.00000,0.00000,0.00000,0,20, 
274758, 57,33.96883,32277,34.41510,58.86900,296.50540,30.47507,32287,39.12671,86.82700,295.73386,129.39453, 945.31244, 317.87109, -8.98473, -2.37405, -2.56489, -4.05000, 34.65000, 48.30000, 36.99125, 0,0.00000,0.00000,0.00000,0,20, 
276505, 59,33.97799,32278,34.41013,58.74500,296.50540,30.47633,32286,39.15728,86.91800,295.73386,126.95312, 982.91010, 311.03516, -9.29008, 66.21374, 23.39695, -3.60000, 34.65000, 48.60000, 37.13503, 0,0.00000,0.00000,0.00000,0,20, 
278251, 61,33.98841,32279,34.40529,59.20400,296.50540,30.47695,32287,39.17562,87.28300,295.64932,44.43359, 942.38275, 325.19528, 2.83969, -1.11450, 3.47328, -2.55000, 35.10000, 48.30000, 37.32671, 0,0.00000,0.00000,0.00000,0,20, 
279999, 61,33.99821,32278,34.40628,58.86900,296.41821,30.47727,32287,39.18174,87.10000,295.73386,99.12109, 961.42572, 348.14450, 10.05344, -1.49618, -1.09160, -4.20000, 36.45000, 46.95000, 36.94333, 0,0.00000,0.00000,0.00000,0,20, 
281744, 61,34.01054,32279,34.40164,59.24600,296.41821,30.47570,32286,39.24857,86.55600,295.73386,79.10156, 979.49213, 313.96484, -3.66412, 0.34351, -1.01527, -0.90000, 34.95000, 47.70000, 36.84748, 0,0.00000,0.00000,0.00000,0,20, 
283492, 59,34.02222,32280,34.38514,59.12000,296.41821,30.47664,32288,39.34618,86.73600,295.64932,64.94141, 966.30853, 293.94531, 3.83206, -0.31298, -1.88550, -2.55000, 35.40000, 47.55000, 37.13503, 0,0.00000,0.00000,0.00000,0,20, 
285235, 58,34.03360,32279,34.38039,59.16200,296.41821,30.47852,32287,39.44395,87.10000,295.73386,-443.84763, 884.27728, 230.46873, -5.90840, 1.48092, -2.25954, 11.25000, 32.25000, 45.15000, 37.18295, 0,0.00000,0.00000,0.00000,0,20, 
286983, 40,34.04529,32279,34.37568,59.03600,296.33365,30.48009,32286,39.51124,86.91800,295.73386,-441.40622, 874.51166, 218.74998, -1.96947, 2.16031, -3.16794, 10.50000, 31.05000, 45.90000, 37.18295, 0,0.00000,0.00000,0.00000,0,20, 
288728, 40,34.05509,32279,34.35310,59.49900,296.33365,30.48228,32287,39.53590,86.82700,295.73386,-462.89059, 854.00385, 213.37889, -2.56489, 1.94656, -3.08397, 9.90000, 31.95000, 45.75000, 36.99125, 0,0.00000,0.00000,0.00000,0,20, 
290476, 37,34.06551,32279,34.37772,59.45700,296.33365,30.48134,32287,39.57241,86.64600,295.64932,-446.77731, 880.37103, 234.37498, -1.37405, -0.98473, -1.21374, 11.10000, 33.15000, 46.05000, 37.18295, 0,0.00000,0.00000,0.00000,0,20, 
292220, 37,34.07562,32279,34.35518,59.12000,296.41821,30.48228,32287,39.61526,86.73600,295.64932,-548.82813, 816.89447, 306.15234, -3.42748, 6.47328, 2.05344, 11.10000, 31.65000, 47.10000, 37.18295, 0,0.00000,0.00000,0.00000,0,20, 
293965, 39,34.08826,32279,34.35056,59.54200,296.41821,30.48574,32286,39.62785,86.91800,295.81842,-413.57419, 864.25775, 242.18748, -0.87786, 3.69466, -3.84733, 8.70000, 33.75000, 45.45000, 36.79956, 0,0.00000,0.00000,0.00000,0,20, 
295713, 38,34.09837,32279,34.34569,59.45700,296.24911,30.48762,32285,39.62196,86.64600,295.81842,17.57813, 940.42963, 265.13672, 2.71756, 4.23664, -4.11450, -10.05000, 37.20000, 48.75000, 37.13503, 0,0.00000,0.00000,0.00000,0,20, 
297458, 47,34.10912,32280,34.34678,59.24600,296.24911,30.48699,32287,39.65242,86.64600,295.73386,176.26952, 1027.83200, 269.04297, -5.08397, 11.80153, 4.20611, -9.60000, 36.15000, 48.30000, 37.32671, 0,0.00000,0.00000,0.00000,0,20, 
299206, 49,34.11923,32279,34.33601,59.41400,296.41821,30.48386,32287,39.66429,86.10700,295.64932,87.40234, 980.46869, 282.22656, -0.92366, -1.01527, 1.48092, -9.15000, 35.10000, 46.50000, 36.94333, 0,0.00000,0.00000,0.00000,0,20, 
300949, 48,34.13061,32279,34.33127,59.54200,296.33365,30.48323,32287,39.67033,86.82700,295.64932,67.87109, 976.56244, 274.41406, 1.46565, -1.31298, -0.58015, -9.90000, 35.40000, 48.30000, 37.27879, 0,0.00000,0.00000,0.00000,0,20, 
302697, 50,34.14166,32279,34.32650,59.20400,296.33365,30.48542,32287,39.67668,86.82700,295.64932,70.31250, 977.53900, 277.83203, 2.04580, 9.51908, 3.04580, -9.60000, 34.65000, 47.85000, 37.27879, 0,0.00000,0.00000,0.00000,0,20, 
304440, 48,34.15241,32280,34.32759,59.20400,296.33365,30.48919,32287,39.65878,86.73600,295.73386,94.23827, 958.98431, 267.08984, 9.14504, 0.28244, -11.37405, -9.75000, 34.95000, 47.40000, 36.94333, 0,0.00000,0.00000,0.00000,0,20, 
306188, 47,34.16283,32280,34.32275,59.37200,296.33365,30.49232,32286,39.60416,86.91800,295.81842,96.67968, 963.86713, 117.67577, -14.98473, 1.23664, -2.06870, -10.05000, 36.75000, 46.65000, 37.18295, 0,0.00000,0.00000,0.00000,0,20, 
307934, 46,34.17231,32280,34.31781,59.45700,296.33365,30.49327,32286,39.58595,86.91800,295.81842,62.50000, 978.51556, 298.82813, 0.58015, 0.82443, 1.06107, -7.50000, 36.45000, 47.40000, 37.27879, 0,0.00000,0.00000,0.00000,0,20, 
309679, 50,34.18243,32280,34.31883,59.54200,296.41821,30.49421,32285,39.59215,86.55600,295.73386,73.73047, 971.19135, 278.32031, -1.16794, 0.57252, 1.53435, -6.15000, 35.40000, 48.90000, 37.32671, 0,0.00000,0.00000,0.00000,0,20, 
311427, 52,34.19317,32280,34.29635,59.71200,296.33365,30.49734,32286,39.62914,86.37600,295.73386,74.70703, 963.37885, 285.15625, 1.34351, 0.77863, -0.96183, -6.45000, 34.05000, 46.65000, 37.27879, 0,0.00000,0.00000,0.00000,0,20, 
313169, 51,34.20359,32280,34.29741,59.49900,296.33365,30.50016,32287,39.66000,86.55600,295.73386,78.61328, 971.19135, 272.94922, 0.73282, -1.34351, 0.49618, -6.45000, 34.05000, 46.65000, 37.51841, 0,0.00000,0.00000,0.00000,0,20, 
314917, 54,34.21434,32281,34.28081,59.58400,296.33365,30.50205,32287,39.66020,86.55600,295.73386,89.84374, 951.66010, 284.17969, 2.35115, 3.12214, -0.69466, -5.25000, 33.30000, 48.45000, 37.32671, 0,0.00000,0.00000,0.00000,0,20, 
316662, 54,34.22350,32280,34.27584,59.75500,296.24911,30.50487,32286,39.62388,86.55600,295.81842,252.92967, 918.45697, 271.97266, -11.54198, -17.15267, -1.21374, -7.95000, 34.95000, 48.45000, 37.27879, 0,0.00000,0.00000,0.00000,0,20, 
318410, 53,34.23487,32280,34.28878,60.01300,296.33365,30.50801,32286,39.60590,86.37600,295.73386,61.52343, 956.05463, 259.76563, 0.62595, 5.70992, -5.69466, -6.15000, 35.40000, 47.85000, 37.37464, 0,0.00000,0.00000,0.00000,0,20, 
320155, 55,34.24341,32279,34.26018,59.37200,296.33365,30.51177,32286,39.56969,86.10700,295.73386,123.53515, 960.44916, 301.26953, 4.09160, -1.12214, 6.74809, -4.50000, 36.00000, 47.40000, 37.18295, 0,0.00000,0.00000,0.00000,0,20, 
321901, 59,34.25573,32281,34.26732,59.71200,296.24911,30.51397,32285,39.56993,86.19700,295.90561,64.94141, 967.77338, 293.45703, 8.26718, 1.67176, -8.82443, -2.55000, 35.85000, 46.50000, 37.18295, 0,0.00000,0.00000,0.00000,0,20, 
323646, 58,34.26647,32281,34.25662,59.58400,296.24911,30.51679,32285,39.57025,86.28600,295.81842,73.24219, 960.44916, 282.22656, 0.59542, 0.55725, 0.73282, -3.30000, 36.15000, 48.30000, 37.27879, 0,0.00000,0.00000,0.00000,0,20, 
325394, 58,34.27690,32281,34.25768,59.33000,296.24911,30.51930,32285,39.58884,86.01800,295.81842,83.49609, 960.44916, 278.80859, 1.29008, 0.64885, 0.07634, -1.95000, 35.70000, 46.20000, 37.18295, 0,0.00000,0.00000,0.00000,0,20, 
327139, 58,34.28764,32281,34.24108,59.54200,296.41821,30.52400,32286,39.57104,86.19700,295.81842,69.82422, 964.35541, 280.76172, 0.30534, -0.01527, -0.01527, -2.40000, 34.05000, 47.40000, 37.27879, 0,0.00000,0.00000,0.00000,0,20, 
328884, 57,34.29744,32279,34.24796,59.66900,296.41821,30.52777,32285,39.56536,85.92900,295.81842,118.65234, 948.73041, 258.30078, 1.67939, -0.51145, 0.96947, -1.95000, 37.20000, 46.20000, 37.56633, 0,0.00000,0.00000,0.00000,0,20, 
330632, 58,34.30818,32278,34.23727,59.37200,296.41821,30.53247,32286,39.54146,85.84100,295.81842,-383.78903, 873.04681, 247.55858, 2.75573, -6.21374, -3.12977, 11.85000, 31.95000, 46.50000, 37.37464, 0,0.00000,0.00000,0.00000,0,20, 
332377, 51,34.32019,32279,34.22670,59.62700,296.50540,30.53780,32286,39.50544,86.28600,295.81842,-481.44528, 878.41791, 267.57813, 11.25191, -20.51145, -13.81679, 17.70000, 29.40000, 46.50000, 37.27879, 0,0.00000,0.00000,0.00000,0,20, 
334125, 52,34.33093,32278,34.23368,59.92600,296.50540,30.53968,32285,39.46904,86.64600,295.81842,-262.20703, 921.38666, 316.40625, 17.14504, -11.58779, -9.41985, 14.70000, 30.45000, 45.75000, 37.51841, 0,0.00000,0.00000,0.00000,0,20, 
335869, 50,34.34168,32278,34.22297,59.45700,296.58997,30.54251,32285,39.43884,86.55600,295.81842,-275.87891, 939.45306, 394.53122, 14.77099, 15.48855, -0.16031, 15.90000, 31.95000, 45.75000, 37.56633, 0,0.00000,0.00000,0.00000,0,20, 
337617, 48,34.35400,32278,34.20655,59.62700,296.50540,30.54784,32286,39.48214,87.00900,295.73386,-278.80859, 940.42963, 132.32422, -3.94656, 15.35878, -17.90840, 13.20000, 34.35000, 41.70000, 37.18295, 0,0.00000,0.00000,0.00000,0,20, 
339362, 6,34.36569,32278,34.21362,59.97000,296.50540,30.55254,32286,39.54369,86.91800,295.73386,-396.97263, 901.85541, 134.27734, -12.27481, 14.12977, -14.31298, 16.95000, 33.90000, 38.40000, 37.51841, 0,0.00000,0.00000,0.00000,0,20, 
341110, 5,34.37738,32278,34.20891,59.66900,296.50540,30.55537,32286,39.56232,87.37400,295.73386,-348.14450, 939.94135, 239.74608, 3.87023, 5.59542, -13.56489, 18.30000, 31.50000, 42.30000, 37.37464, 0,0.00000,0.00000,0.00000,0,20, 
342855, 5,34.38876,32278,34.18060,59.79800,296.50540,30.56133,32287,39.59351,88.02200,295.64932,-887.20697, 534.17969, 471.67966, -13.47328, 26.31298, 10.68702, 21.60000, 16.95000, 47.40000, 37.32671, 0,0.00000,0.00000,0.00000,0,20, 
344603, 57,34.40013,32278,34.18175,59.66900,296.41821,30.56729,32287,39.56364,87.74300,295.64932,-685.54681, 709.96088, 205.07811, 1.99237, -0.81679, 1.75573, 25.05000, 20.10000, 43.20000, 37.51841, 0,0.00000,0.00000,0.00000,0,20, 
346348, 9,34.41182,32279,34.18293,59.71200,296.50540,30.57262,32288,39.55202,87.37400,295.56210,-836.91400, 498.04684, 283.69141, 56.83969, -38.59542, -7.83969, 21.75000, 22.50000, 44.25000, 37.56633, 0,0.00000,0.00000,0.00000,0,20, 
348093, 9,34.42162,32278,34.17803,59.79800,296.41821,30.57858,32288,39.55268,87.19100,295.64932,-557.12891, 803.71088, 261.23047, 3.42748, -0.93130, 11.51145, 18.60000, 27.30000, 45.90000, 37.66217, 0,0.00000,0.00000,0.00000,0,20, 
349841, 12,34.42952,32279,34.16705,59.75500,296.50540,30.58360,32287,39.56545,86.73600,295.73386,23.92578, 911.62103, 158.69141, -6.54198, -0.09924, 0.54962, -6.15000, 37.35000, 46.50000, 37.51841, 0,0.00000,0.00000,0.00000,0,20, 
351586, 46,34.44215,32280,34.17421,59.62700,296.33365,30.58705,32287,39.58416,86.91800,295.73386,-36.13281, 983.88666, 268.06641, -2.38931, 2.39695, 2.08397, -6.15000, 35.10000, 46.05000, 37.71010, 0,0.00000,0.00000,0.00000,0,20, 
353334, 46,34.45037,32279,34.17505,59.66900,296.41821,30.58861,32286,39.60876,87.19100,295.73386,-27.83203, 970.21478, 264.64844, -2.12214, 0.56489, -0.62595, -6.00000, 36.00000, 46.20000, 37.51841, 0,0.00000,0.00000,0.00000,0,20, 
355079, 43,34.46049,32279,34.16428,59.71200,296.50540,30.59269,32286,39.65807,86.55600,295.64932,-20.99609, 970.70306, 255.85936, 0.64122, -1.25191, -0.94656, -7.20000, 35.70000, 46.20000, 37.51841, 0,0.00000,0.00000,0.00000,0,20, 
356827, 46,34.47249,32279,34.14782,59.84100,296.50540,30.59802,32287,39.67088,86.55600,295.64932,-36.62109, 975.09760, 265.13672, -2.31298, 3.87786, -1.45038, -6.00000, 35.70000, 46.95000, 37.27879, 0,0.00000,0.00000,0.00000,0,20, 
358572, 46,34.48481,32278,34.14907,59.84100,296.50540,30.60304,32287,39.67144,86.73600,295.64932,-34.17969, 963.86713, 248.04686, 2.36641, 1.40458, -0.25954, -6.75000, 36.45000, 46.65000, 37.66217, 0,0.00000,0.00000,0.00000,0,20, 
360320, 46,34.49619,32278,34.14433,59.66900,296.41821,30.60994,32287,39.64166,86.46600,295.64932,-17.57813, 995.60541, 258.30078, 3.96947, -0.30534, 0.23664, -5.10000, 37.05000, 45.00000, 37.51841, 0,0.00000,0.00000,0.00000,0,20, 
362065, 46,34.50820,32279,34.14554,59.84100,296.41821,30.61559,32288,39.59343,86.64600,295.64932,-21.97265, 963.37885, 257.32422, 2.37405, 2.32061, 0.11450, -5.70000, 36.45000, 46.20000, 37.27879, 0,0.00000,0.00000,0.00000,0,20, 
363812, 47,34.52052,32280,34.14090,59.97000,296.33365,30.62123,32288,39.56353,86.91800,295.56210,-89.35546, 981.93353, 275.87891, 6.02290, -0.32824, 3.31298, -4.50000, 34.95000, 46.20000, 37.37464, 0,0.00000,0.00000,0.00000,0,20, 
365558, 47,34.53189,32280,34.13615,59.75500,296.33365,30.62625,32288,39.55798,86.73600,295.56210,-54.68750, 957.03119, 264.64844, -2.30534, 2.96947, -0.54962, -4.80000, 35.40000, 46.80000, 37.66217, 0,0.00000,0.00000,0.00000,0,20, 
367303, 47,34.54295,32280,34.13138,59.84100,296.33365,30.63221,32288,39.56474,86.64600,295.56210,-69.82422, 962.89056, 236.32811, 8.06107, 1.67939, 2.43511, -5.70000, 36.75000, 47.40000, 37.80594, 0,0.00000,0.00000,0.00000,0,20, 
369051, 20,34.55180,32280,34.12637,59.79800,296.33365,30.63754,32288,39.52870,87.10000,295.56210,-566.40625, 362.30466, 791.50385, -46.45038, -22.96183, 6.05344, 18.00000, -4.50000, 53.70000, 37.71010, 0,0.00000,0.00000,0.00000,0,20, 
370796, 13,34.56349,32279,34.12167,59.75500,296.33365,30.64539,32288,39.49295,87.19100,295.56210,-662.59760, 182.61717, 711.42572, -5.16031, -0.94656, -0.85496, 21.90000, -12.75000, 49.95000, 37.71010, 0,0.00000,0.00000,0.00000,0,20, 
372544, 12,34.57360,32280,34.13447,59.66900,296.33365,30.65040,32288,39.43859,87.19100,295.64932,-592.28516, 45.89843, 825.68353, -2.85496, 5.62595, -1.40458, 19.05000, -19.65000, 50.55000, 37.56633, 0,0.00000,0.00000,0.00000,0,20, 
374289, 6,34.58403,32280,34.11196,59.75500,296.24911,30.65574,32288,39.35989,87.28300,295.56210,-499.99997, 0.97656, 922.85150, 2.76336, -13.93130, -7.08397, 13.20000, -19.05000, 51.90000, 37.32671, 0,0.00000,0.00000,0.00000,0,20, 
376037, 8,34.59509,32281,34.10130,59.71200,296.24911,30.65981,32288,39.33595,87.46600,295.56210,-571.77734, 81.05468, 748.04681, 16.86259, -8.28244, -2.59542, 23.40000, -19.20000, 43.65000, 37.37464, 0,0.00000,0.00000,0.00000,0,20, 
377780, 7,34.60646,32281,34.10244,59.92600,296.24911,30.66295,32288,39.27533,87.46600,295.56210,-417.96872, 27.34375, 947.75385, -2.94656, 7.39695, -0.39695, 17.55000, -19.20000, 47.70000, 37.47048, 0,0.00000,0.00000,0.00000,0,20, 
379528, 7,34.61626,32282,34.09166,59.66900,296.24911,30.66483,32288,39.22069,88.30300,295.64932,-367.18747, 23.92578, 963.86713, 1.10687, -10.87023, 1.88550, 18.75000, -18.60000, 48.30000, 37.85387, 0,0.00000,0.00000,0.00000,0,20, 
381273, 7,34.62416,32281,34.07478,59.92600,296.24911,30.66546,32288,39.17202,88.49100,295.56210,-344.23825, 27.83203, 959.96088, 1.06107, 1.62595, -2.33588, 17.40000, -19.05000, 49.65000, 37.85387, 0,0.00000,0.00000,0.00000,0,20, 
383021, 8,34.63364,32282,34.06396,59.71200,296.16193,30.66703,32288,39.11738,88.77400,295.56210,-338.86716, 15.13672, 966.30853, 1.59542, 0.62595, -2.03053, 18.60000, -20.70000, 48.75000, 37.51841, 0,0.00000,0.00000,0.00000,0,20, 
384765, 7,34.64091,32282,34.05880,60.09900,296.24911,30.66985,32288,39.09942,89.15500,295.56210,-301.75781, 22.46094, 973.63275, 0.98473, -3.87786, -0.50382, 16.80000, -18.00000, 50.25000, 37.66217, 0,0.00000,0.00000,0.00000,0,20, 
386510, 7,34.64912,32282,34.04197,60.05600,296.16193,30.67016,32288,39.07510,89.15500,295.64932,-312.50000, 1.95312, 970.70306, -4.75573, -11.85496, -5.58779, 16.05000, -19.65000, 50.25000, 37.85387, 0,0.00000,0.00000,0.00000,0,20, 
388258, 7,34.65702,32282,34.01921,60.09900,296.16193,30.66922,32288,39.05065,89.73200,295.73386,-576.66016, 44.43359, 833.00775, -7.36641, 6.90076, -6.19847, 27.15000, -15.75000, 40.80000, 37.32671, 0,0.00000,0.00000,0.00000,0,20, 
390003, 7,34.66555,32282,34.02007,60.01300,296.16193,30.66828,32287,39.05664,89.34700,295.73386,-669.43353, 56.64062, 772.46088, 1.43511, -0.42748, 1.83206, 27.90000, -14.25000, 38.25000, 37.71010, 0,0.00000,0.00000,0.00000,0,20, 
391751, 8,34.67187,32282,33.99127,60.05600,296.16193,30.66765,32287,39.06266,89.15500,295.73386,-666.99213, 64.94141, 761.23041, -2.06107, 3.04580, 2.01527, 28.65000, -14.25000, 38.25000, 37.80594, 0,0.00000,0.00000,0.00000,0,20, 
393494, 8,34.67977,32282,33.99207,60.14200,296.24911,30.67016,32287,39.06902,89.34700,295.64932,-46.87500, 38.57422, 1000.97650, 0.60305, -2.87786, -1.86260, 10.05000, -16.20000, 53.85000, 37.71010, 0,0.00000,0.00000,0.00000,0,20, 
395240, 7,34.68546,32281,33.96910,60.22900,296.33365,30.67016,32288,39.01424,89.73200,295.56210,-10.25391, 21.97265, 1049.80470, 4.03053, 0.51145, 2.16794, 6.60000, -16.80000, 54.45000, 37.71010, 0,0.00000,0.00000,0.00000,0,20, 
396985, 6,34.69020,32280,33.95192,59.88300,296.24911,30.66891,32288,38.97151,89.53900,295.56210,-23.92578, 39.55078, 1013.67180, -2.18321, 1.83206, -0.88550, 6.45000, -18.00000, 56.10000, 37.90179, 0,0.00000,0.00000,0.00000,0,20, 
398733, 7,34.69273,32283,33.93452,60.05600,296.16193,30.66828,32288,38.94102,89.53900,295.56210,24.90234, 53.22265, 1004.88280, -10.67939, 4.89313, -0.47328, 5.85000, -17.10000, 57.30000, 37.66217, 0,0.00000,0.00000,0.00000,0,20, 
400478, 7,34.69494,32282,33.92297,60.22900,296.16193,30.66609,32288,38.92861,90.02400,295.56210,-23.43750, 13.18359, 1025.39060, 2.40458, -3.62595, 1.56489, 6.15000, -19.35000, 55.80000, 37.85387, 0,0.00000,0.00000,0.00000,0,20, 
402221, 7,34.69810,32283,33.92329,60.18600,296.07736,30.66452,32288,38.91628,89.92700,295.64932,-20.50781, 36.62109, 1018.55460, -1.17557, 2.64885, -1.17557, 6.60000, -17.55000, 55.80000, 37.71010, 0,0.00000,0.00000,0.00000,0,20, 
403966, 7,34.70126,32283,33.90595,60.27300,296.16193,30.66515,32287,38.95284,89.92700,295.64932,-20.01953, 31.25000, 1010.74210, 5.03053, -1.54962, 1.19084, 5.25000, -17.70000, 56.40000, 37.66217, 0,0.00000,0.00000,0.00000,0,20, 
405709, 8,34.70473,32282,33.90042,60.27300,296.16193,30.66609,32288,38.96511,90.31700,295.56210,-429.19919, 72.26563, 897.94916, -2.30534, 1.39695, -1.05344, 22.35000, -16.95000, 44.85000, 37.99763, 0,0.00000,0.00000,0.00000,0,20, 
407457, 7,34.70726,32282,33.87714,60.05600,296.24911,30.66828,32287,39.03229,89.44300,295.56210,-446.77731, 16.11328, 924.31635, 0.35115, 0.06870, 2.03817, 23.70000, -15.90000, 45.00000, 37.85387, 0,0.00000,0.00000,0.00000,0,20, 
409202, 8,34.71074,32281,33.88337,60.31600,296.16193,30.67236,32288,39.06926,89.53900,295.64932,-635.74219, -85.44921, 759.76556, 2.22901, 3.42748, -11.83969, 25.80000, -21.30000, 37.35000, 37.71010, 0,0.00000,0.00000,0.00000,0,20, 
410950, 7,34.71611,32282,33.86627,60.36000,296.16193,30.67299,32287,39.11195,88.96400,295.73386,-641.60156, -67.38281, 783.69135, -1.13740, 0.16794, -0.46565, 26.70000, -22.20000, 37.50000, 37.85387, 0,0.00000,0.00000,0.00000,0,20, 
412695, 8,34.72053,32281,33.85494,60.22900,296.16193,30.67487,32287,39.16697,88.86900,295.73386,-633.30078, -69.82422, 779.29681, 0.51908, -0.02290, 1.11450, 26.25000, -22.80000, 39.15000, 37.56633, 0,0.00000,0.00000,0.00000,0,20, 
414443, 6,34.72464,32281,33.83772,60.49100,296.24911,30.67675,32287,39.20373,88.11500,295.64932,-645.01947, -74.70703, 769.53119, -4.41985, -0.45038, -0.88550, 25.80000, -21.75000, 40.05000, 37.66217, 0,0.00000,0.00000,0.00000,0,20, 
416188, 6,34.72717,32281,33.82620,60.36000,296.24911,30.68020,32288,39.26505,88.49100,295.56210,-634.27734, -65.42969, 784.17963, -2.32824, 3.24427, -1.23664, 25.05000, -22.05000, 38.85000, 37.90179, 0,0.00000,0.00000,0.00000,0,20, 
417936, 6,34.73159,32281,33.80901,59.97000,296.24911,30.68271,32287,39.30190,88.20900,295.56210,-628.90625, -66.40625, 789.06244, 0.81679, -1.06870, 1.28244, 25.50000, -21.30000, 39.15000, 37.85387, 0,0.00000,0.00000,0.00000,0,20, 
419679, 6,34.73507,32282,33.81524,60.36000,296.24911,30.68616,32288,39.31447,88.11500,295.56210,-618.16406, -43.45703, 803.71088, -0.22137, 3.80916, -2.09924, 27.00000, -21.30000, 38.10000, 37.90179, 0,0.00000,0.00000,0.00000,0,20, 
421424, 6,34.73633,32281,33.79772,60.40400,296.24911,30.68929,32288,39.33921,87.65100,295.64932,-586.42578, -21.48437, 887.69525, 3.61832, 19.67939, -0.96947, 19.80000, -21.15000, 48.00000, 37.71010, 0,0.00000,0.00000,0.00000,0,20, 
423172, 5,34.73759,32282,33.79785,60.18600,296.24911,30.69181,32288,39.34559,88.02200,295.56210,-591.79688, 121.58202, 750.97650, 29.51908, -3.19847, -0.09924, 21.15000, -15.45000, 49.20000, 37.90179, 0,0.00000,0.00000,0.00000,0,20, 
424916, 6,34.74170,32281,33.78650,60.49100,296.24911,30.69526,32289,39.34597,87.74300,295.47757,-564.94141, 810.54681, 162.10936, 1.73282, 4.77863, 2.96947, 27.00000, 24.75000, 40.65000, 37.99763, 0,0.00000,0.00000,0.00000,0,20, 
426664, 6,34.74707,32281,33.76940,60.31600,296.33365,30.70215,32290,39.32844,88.20900,295.39038,-575.19531, 832.03119, 158.20313, 1.69466, 12.91603, 18.53435, 26.70000, 26.10000, 38.55000, 37.85387, 0,0.00000,0.00000,0.00000,0,20, 
428407, 5,34.75181,32281,33.74636,60.49100,296.24911,30.71439,32289,39.26273,88.20900,295.39038,-532.22656, 797.36322, 329.10153, 7.21374, 5.16031, -8.90076, 27.15000, 22.20000, 41.55000, 37.85387, 0,0.00000,0.00000,0.00000,0,20, 
430155, 6,34.75782,32281,33.75285,60.49100,296.24911,30.72254,32290,39.24534,88.58500,295.39038,-664.55072, 731.93353, 205.07811, -1.10687, 2.77863, 2.19084, 29.55000, 21.30000, 40.20000, 37.99763, 0,0.00000,0.00000,0.00000,0,20, 
431900, 7,34.76382,32280,33.75344,60.40400,296.33365,30.72254,32290,39.22096,88.67900,295.47757,-406.73825, 887.69525, 180.17577, 1.76336, 11.27481, -10.56489, 21.75000, 30.90000, 41.70000, 37.99763, 0,0.00000,0.00000,0.00000,0,20, 
433648, 6,34.77172,32281,33.74248,60.57900,296.33365,30.72631,32289,39.20310,88.67900,295.56210,-325.68356, 961.91400, 35.15625, 16.49618, 10.25954, -14.00000, 23.40000, 35.70000, 31.65000, 37.85387, 0,0.00000,0.00000,0.00000,0,20, 
435393, 4,34.77709,32281,33.72538,60.53500,296.33365,30.73070,32288,39.19749,88.39700,295.56210,-496.58200, 878.41791, -79.10156, 3.38931, 0.03817, 2.58015, 27.00000, 33.60000, 28.65000, 38.09348, 0,0.00000,0.00000,0.00000,0,20, 
437140, 3,34.78436,32282,33.70260,60.40400,296.24911,30.73383,32288,39.16738,88.77400,295.47757,-502.44138, 865.72260, -90.33202, 1.54198, 7.21374, -1.51908, 29.40000, 33.30000, 28.05000, 37.66217, 0,0.00000,0.00000,0.00000,0,20, 
438886, 5,34.79005,32281,33.71493,60.49100,296.24911,30.73572,32288,39.16149,89.15500,295.56210,-529.78516, 873.04681, -40.52734, 5.11450, 0.87786, 2.37405, 28.65000, 31.05000, 31.05000, 37.71010, 0,0.00000,0.00000,0.00000,0,20, 
440631, 4,34.79826,32282,33.69811,60.57900,296.33365,30.73729,32287,39.16166,88.67900,295.64932,-525.39063, 850.09760, -65.91797, 2.53435, 5.87023, 2.22137, 27.75000, 30.45000, 29.40000, 37.90179, 0,0.00000,0.00000,0.00000,0,20, 
442378, 3,34.80458,32281,33.68700,60.53500,296.33365,30.74136,32287,39.17430,88.86900,295.56210,-492.18747, 878.90619, -11.23047, 40.60305, -115.21374, 12.88550, 24.75000, 33.90000, 33.75000, 38.04556, 0,0.00000,0.00000,0.00000,0,20, 
444124, 6,34.81311,32281,33.68197,60.71100,296.33365,30.74607,32288,39.15654,88.30300,295.56210,-239.25780, 877.44135, -511.71872, -12.20611, -17.73282, 8.80916, -7.95000, 50.55000, 9.15000, 37.71010, 0,0.00000,0.00000,0.00000,0,20, 
445870, 4,34.82164,32281,33.67107,60.53500,296.24911,30.75140,32287,39.16322,88.30300,295.56210,-885.25385, 736.32806, 8.78906, -1.48855, -10.32824, 8.70229, 18.60000, 35.25000, 34.95000, 38.09348, 0,0.00000,0.00000,0.00000,0,20, 
447614, 6,34.82986,32282,33.65427,60.84400,296.33365,30.75893,32288,39.15796,88.20900,295.56210,-699.21869, 594.72656, -243.16405, 10.58015, 4.44275, 0.82443, 22.50000, 42.75000, 25.35000, 37.99763, 0,0.00000,0.00000,0.00000,0,20, 
449361, 5,34.83744,32280,33.65503,60.49100,296.33365,30.76551,32287,39.20743,87.46600,295.64932,-668.94525, 668.94525, -332.51950, -2.84733, 2.84733, -0.03053, 19.35000, 44.10000, 20.10000, 37.99763, 0,0.00000,0.00000,0.00000,0,20, 
451107, 5,34.84598,32280,33.63238,60.71100,296.50540,30.77210,32287,39.22034,87.55800,295.64932,-737.30463, 676.26947, -201.17186, 0.09160, -2.74809, -12.03817, 21.60000, 41.40000, 26.25000, 37.99763, 0,0.00000,0.00000,0.00000,0,20, 
452854, 2,34.85451,32279,33.64498,60.80000,296.50540,30.77806,32287,39.24537,87.10000,295.64932,-645.50775, 713.86713, -212.89061, -15.43511, -4.32061, 7.06870, 17.70000, 43.80000, 27.15000, 37.90179, 0,0.00000,0.00000,0.00000,0,20, 
454600, 3,34.86304,32278,33.62233,60.71100,296.50540,30.78590,32287,39.27672,87.37400,295.64932,-825.68353, 580.07813, -361.81638, -25.62595, 1.41985, 11.49618, 24.75000, 40.05000, 22.05000, 37.85387, 0,0.00000,0.00000,0.00000,0,20, 
456347, 5,34.87031,32278,33.62305,60.49100,296.41821,30.79186,32287,39.36275,87.00900,295.64932,-773.92572, 466.30856, -429.19919, 14.82443, 12.34351, -8.12214, 29.85000, 33.60000, 20.25000, 37.85387, 0,0.00000,0.00000,0.00000,0,20, 
458092, 8,34.88042,32279,33.60057,60.49100,296.41821,30.80252,32287,39.38834,86.91800,295.64932,-665.52728, 421.87497, -412.10934, 2.12214, 3.29008, -2.76336, 31.95000, 33.30000, 15.75000, 37.99763, 0,0.00000,0.00000,0.00000,0,20, 
459838, 6,34.89021,32280,33.60155,60.44700,296.41821,30.81350,32288,39.38345,86.37600,295.56210,-779.78510, 431.15231, -454.10153, 0.23664, 3.35878, -0.84733, 31.80000, 34.35000, 16.20000, 38.23725, 0,0.00000,0.00000,0.00000,0,20, 
461585, 6,34.90095,32280,33.59675,60.40400,296.41821,30.82448,32289,39.38467,86.46600,295.56210,9.76563, 567.38281, -874.02338, 3.19084, 4.71756, -0.26718, -3.60000, 46.95000, -2.85000, 38.23725, 0,0.00000,0.00000,0.00000,0,20, 
463331, 1,34.91391,32280,33.59216,60.62300,296.33365,30.83608,32289,39.36765,86.19700,295.47757,28.80859, 623.53516, -772.46088, -0.29771, -1.42748, -3.35878, -3.45000, 47.10000, -2.70000, 37.99763, 0,0.00000,0.00000,0.00000,0,20, 
465078, 1,34.92718,32280,33.57000,60.49100,296.41821,30.84550,32289,39.33820,86.19700,295.47757,27.34375, 623.04688, -774.41400, -1.76336, 2.44275, -0.29008, -4.95000, 48.60000, -3.75000, 38.23725, 0,0.00000,0.00000,0.00000,0,20, 
466824, 1,34.94108,32280,33.57138,60.53500,296.33365,30.85584,32289,39.30885,85.66400,295.47757,25.87890, 628.90625, -773.43744, -1.60305, 1.88550, -2.25191, -4.05000, 48.00000, -1.35000, 37.99763, 0,0.00000,0.00000,0.00000,0,20, 
468572, 0,34.95625,32280,33.56115,60.49100,296.41821,30.86588,32289,39.29166,85.48700,295.47757,36.13281, 644.53119, -757.32416, -0.45038, 0.94656, 4.03817, -4.50000, 48.60000, -1.95000, 38.18932, 0,0.00000,0.00000,0.00000,0,20, 
470317, 1,34.97079,32280,33.56260,60.62300,296.41821,30.87623,32289,39.23184,85.13700,295.47757,22.94922, 609.37500, -776.36713, -0.04580, 0.35115, -0.85496, -4.35000, 48.45000, -2.85000, 38.09348, 0,0.00000,0.00000,0.00000,0,20, 
472065, 1,34.98690,32280,33.54659,60.53500,296.41821,30.88596,32289,39.19635,85.22400,295.47757,33.20313, 623.04688, -782.71478, 2.37405, 0.87786, 0.12214, -3.60000, 46.95000, -2.85000, 38.23725, 0,0.00000,0.00000,0.00000,0,20, 
473809, 1,35.00207,32279,33.54811,60.49100,296.41821,30.89568,32290,39.17305,84.70300,295.39038,24.41406, 616.69922, -781.73822, -0.19847, 1.75573, -2.24427, -5.85000, 47.70000, -3.60000, 38.18932, 0,0.00000,0.00000,0.00000,0,20, 
475557, 1,35.01881,32280,33.54391,60.44700,296.50540,30.90635,32289,39.13766,84.61700,295.39038,39.55078, 612.79297, -782.71478, 2.05344, 0.68702, -1.97710, -3.75000, 47.55000, -2.70000, 38.23725, 0,0.00000,0.00000,0.00000,0,20, 
477302, 1,35.03588,32279,33.54560,60.18600,296.41821,30.91701,32290,39.12666,84.61700,295.39038,25.87890, 630.85938, -780.76166, -0.70992, 2.96183, -2.98473, -3.75000, 48.30000, -3.75000, 38.09348, 0,0.00000,0.00000,0.00000,0,20, 
479047, 0,35.05389,32279,33.54153,60.31600,296.50540,30.92861,32290,39.11575,84.70300,295.47757,25.87890, 624.51172, -776.36713, 1.24427, 2.52672, 0.85496, -3.60000, 47.70000, -2.40000, 38.09348, 0,0.00000,0.00000,0.00000,0,20, 
480795, 1,35.07064,32278,33.53733,60.31600,296.50540,30.93959,32290,39.10478,84.96300,295.47757,27.34375, 629.88281, -796.87494, 4.06870, -1.02290, 0.06107, -3.60000, 48.00000, -2.40000, 38.38102, 0,0.00000,0.00000,0.00000,0,20, 
482540, 2,35.08991,32279,33.54513,60.40400,296.50540,30.94963,32289,39.11198,84.79000,295.47757,20.99609, 622.55859, -780.27338, -2.07634, 1.09160, -3.54962, -4.50000, 45.60000, -3.45000, 38.04556, 0,0.00000,0.00000,0.00000,0,20, 
484288, 1,35.10792,32279,33.54105,60.14200,296.41821,30.96092,32289,39.10104,83.93400,295.47757,20.50781, 564.94141, -851.56244, -21.61832, 4.58015, -19.21374, -4.95000, 48.60000, -4.50000, 38.33309, 0,0.00000,0.00000,0.00000,0,20, 
486033, 0,35.12783,32278,33.51954,60.31600,296.41821,30.97033,32289,39.10817,84.01800,295.56210,11.71875, 583.49609, -811.52338, 0.19847, 3.16031, -4.43511, -4.50000, 47.10000, -4.50000, 38.18932, 0,0.00000,0.00000,0.00000,0,20, 
487781, 0,35.14742,32280,33.52737,60.01300,296.33365,30.98005,32288,39.09096,83.93400,295.56210,10.74219, 579.10156, -804.19916, 0.87023, -0.77863, 0.58015, -4.80000, 48.45000, -4.65000, 38.18932, 0,0.00000,0.00000,0.00000,0,20, 
489526, 1,35.16796,32280,33.51768,60.18600,296.33365,30.98789,32288,39.08574,83.34500,295.56210,2.92969, 577.63672, -815.91791, 1.78626, -0.89313, 1.76336, -3.60000, 46.20000, -4.95000, 38.38102, 0,0.00000,0.00000,0.00000,0,20, 
491274, 0,35.18786,32280,33.53141,60.05600,296.33365,30.99730,32289,39.07459,83.93400,295.56210,-3.41797, 590.82031, -801.26947, -1.85496, 4.76336, -1.25954, -3.30000, 47.70000, -4.95000, 37.90179, 0,0.00000,0.00000,0.00000,0,20, 
493019, 1,35.20808,32280,33.51580,59.97000,296.33365,31.00765,32288,39.07574,83.51200,295.56210,13.67187, 590.33203, -809.08197, -1.43511, 3.19084, -1.88550, -4.80000, 47.25000, -3.90000, 38.42894, 0,0.00000,0.00000,0.00000,0,20, 
494765, 1,35.22610,32280,33.52348,60.05600,296.33365,31.01643,32288,39.07671,83.26100,295.56210,6.34766, 592.28516, -813.96478, 1.74046, 0.16794, 1.80153, -4.50000, 48.60000, -4.05000, 38.52479, 0,0.00000,0.00000,0.00000,0,20, 
496522, 1,35.23874,32280,33.51887,59.97000,296.33365,31.02678,32289,39.10221,83.59600,295.56210,2.92969, 580.07813, -810.05853, -3.87786, 2.29771, 0.79389, -3.75000, 47.55000, -5.25000, 38.33309, 0,0.00000,0.00000,0.00000,0,20, 
498267, 0,35.25896,32281,33.50913,59.97000,296.24911,31.03619,32289,39.09715,83.26100,295.56210,9.76563, 568.84766, -811.52338, -3.78626, 2.08397, -3.74809, -4.95000, 47.10000, -4.80000, 38.33309, 0,0.00000,0.00000,0.00000,0,20, 
500016, 0,35.27950,32281,33.49944,59.71200,296.24911,31.04529,32288,39.09816,83.09500,295.56210,15.13672, 574.70703, -806.15228, -2.54198, 4.70992, 2.73282, -3.60000, 47.70000, -4.35000, 37.90179, 0,0.00000,0.00000,0.00000,0,20, 
501761, 0,35.29751,32279,33.50124,59.84100,296.41821,31.05533,32288,39.10536,83.09500,295.56210,7.32422, 585.93750, -799.31635, 1.83969, -0.74046, -0.74046, -3.45000, 47.55000, -3.75000, 38.33309, 0,0.00000,0.00000,0.00000,0,20, 
503507, 1,35.31647,32280,33.50313,59.71200,296.33365,31.06474,32288,39.10031,82.76400,295.56210,-2.92969, 584.96094, -807.61713, 0.34351, -0.69466, 0.17557, -4.50000, 47.10000, -5.25000, 38.38102, 0,0.00000,0.00000,0.00000,0,20, 
505253, 1,35.33511,32280,33.49912,59.58400,296.33365,31.07415,32288,39.10743,82.84600,295.56210,4.88281, 580.07813, -816.89447, -1.16031, 3.07634, -0.02290, -3.60000, 47.25000, -3.60000, 38.33309, 0,0.00000,0.00000,0.00000,0,20, 
507001, 1,35.35375,32281,33.50098,59.62700,296.33365,31.08262,32288,39.09619,82.59900,295.64932,-1.95312, 579.58984, -801.75775, -2.78626, 4.51908, 1.97710, -4.20000, 47.55000, -4.80000, 38.23725, 0,0.00000,0.00000,0.00000,0,20, 
508747, 0,35.37271,32279,33.48525,59.79800,296.33365,31.09171,32288,39.11547,82.43500,295.56210,20.99609, 591.79688, -806.15228, -2.58015, 4.14504, -2.05344, -4.05000, 47.70000, -4.35000, 38.52479, 0,0.00000,0.00000,0.00000,0,20, 
510496, 0,35.39167,32280,33.47539,59.71200,296.33365,31.10081,32288,39.13476,82.92900,295.56210,-0.48828, 592.28516, -811.52338, -1.70992, 2.63359, -2.79389, -4.35000, 48.00000, -4.05000, 38.57271, 0,0.00000,0.00000,0.00000,0,20, 
512246, 0,35.40936,32280,33.46541,59.54200,296.41821,31.11022,32287,39.16018,82.43500,295.64932,16.11328, 583.00781, -797.36322, -2.56489, 3.35115, -1.60305, -5.55000, 47.70000, -4.65000, 38.18932, 0,0.00000,0.00000,0.00000,0,20, 
513991, 0,35.42959,32280,33.46743,59.49900,296.50540,31.11806,32288,39.16104,82.43500,295.56210,21.97265, 578.61328, -813.96478, -1.82443, 3.05344, 0.06870, -3.60000, 48.00000, -5.40000, 38.76440, 0,0.00000,0.00000,0.00000,0,20, 
515740, 1,35.44918,32279,33.46938,59.28800,296.33365,31.12841,32289,39.14999,82.19100,295.56210,4.39453, 587.40234, -824.21869, 0.80153, 0.22137, -0.51908, -3.60000, 46.95000, -4.65000, 38.33309, 0,0.00000,0.00000,0.00000,0,20, 
517485, 0,35.46940,32280,33.46553,59.45700,296.33365,31.13751,32288,39.15710,82.02900,295.47757,5.85937, 588.86719, -807.12885, 0.77863, 1.05344, 4.08397, -3.75000, 46.35000, -4.80000, 38.33309, 0,0.00000,0.00000,0.00000,0,20, 
519234, 0,35.48899,32281,33.45573,59.45700,296.33365,31.14692,32289,39.17033,81.78600,295.56210,4.88281, 591.30859, -805.66400, 1.01527, 2.38931, 0.52672, -5.55000, 47.25000, -4.35000, 38.52479, 0,0.00000,0.00000,0.00000,0,20, 
520979, 0,35.50953,32281,33.44604,59.37200,296.33365,31.15726,32290,39.17147,82.35400,295.47757,8.30078, 575.68359, -808.59369, 1.51908, 0.98473, 2.61832, -3.00000, 46.65000, -4.05000, 38.52479, 0,0.00000,0.00000,0.00000,0,20, 
522728, 1,35.52818,32280,33.43615,59.33000,296.33365,31.16479,32289,39.19060,81.78600,295.47757,4.39453, 574.21875, -804.68744, 0.64885, -0.14504, 2.08397, -5.70000, 47.55000, -3.75000, 38.38102, 0,0.00000,0.00000,0.00000,0,20, 
524473, 0,35.54776,32280,33.42635,59.54200,296.33365,31.17483,32290,39.19170,81.70600,295.39038,8.30078, 581.54297, -806.64056, -0.98473, 3.73282, 0.19084, -4.95000, 47.55000, -3.75000, 38.33309, 0,0.00000,0.00000,0.00000,0,20, 
526222, 0,35.56577,32279,33.42228,59.28800,296.41821,31.18424,32290,39.19884,81.38600,295.47757,5.85937, 575.68359, -810.05853, -1.61832, 3.28244, -0.47328, -4.80000, 46.50000, -4.65000, 38.57271, 0,0.00000,0.00000,0.00000,0,20, 
527968, 0,35.58568,32279,33.41252,59.16200,296.41821,31.19365,32290,39.19989,81.46600,295.47757,10.25391, 582.51953, -805.66400, -1.10687, 2.58779, -2.82443, -3.75000, 47.85000, -4.05000, 38.38102, 0,0.00000,0.00000,0.00000,0,20, 
529714, 0,35.60622,32279,33.41457,58.95300,296.41821,31.20149,32288,39.20685,81.46600,295.47757,1.95312, 589.35547, -810.05853, 0.12977, -1.03053, -1.07634, -4.05000, 46.95000, -4.35000, 38.71648, 0,0.00000,0.00000,0.00000,0,20, 
531462, 0,35.62518,32279,33.40471,59.12000,296.41821,31.20933,32289,39.19553,81.14800,295.56210,5.37109, 590.33203, -818.84760, -1.27481, -0.28244, 0.76336, -4.35000, 47.70000, -4.65000, 38.57271, 0,0.00000,0.00000,0.00000,0,20, 
533208, 0,35.64477,32279,33.40079,59.28800,296.41821,31.21843,32288,39.22092,81.14800,295.56210,9.76563, 590.33203, -812.98822, -2.20611, 4.35115, 1.35115, -3.30000, 46.95000, -4.65000, 38.52479, 0,0.00000,0.00000,0.00000,0,20, 
534957, 1,35.66562,32279,33.39700,58.99400,296.33365,31.22689,32288,39.22186,80.83200,295.56210,5.85937, 579.10156, -818.35931, 1.06870, 0.82443, 0.82443, -2.10000, 47.25000, -5.70000, 38.62063, 0,0.00000,0.00000,0.00000,0,20, 
536707, 0,35.68553,32279,33.38136,59.12000,296.33365,31.23505,32288,39.22887,81.78600,295.64932,2.92969, 587.40234, -799.80463, -0.70229, 1.67176, -0.80916, -2.40000, 45.15000, -5.55000, 38.52479, 0,0.00000,0.00000,0.00000,0,20, 
538455, 0,35.70544,32280,33.38335,58.86900,296.33365,31.24352,32288,39.21151,81.70600,295.56210,4.39453, 586.42578, -808.10541, -3.03817, 1.37405, -3.20611, -4.95000, 46.65000, -5.55000, 38.62063, 0,0.00000,0.00000,0.00000,0,20, 
540200, 1,35.72661,32280,33.36784,59.12000,296.24911,31.25167,32289,39.20631,80.83200,295.64932,1.46484, 583.49609, -804.68744, 2.28244, -0.14504, 1.49618, -3.75000, 49.05000, -4.50000, 38.52479, 0,0.00000,0.00000,0.00000,0,20, 
541948, 1,35.74715,32280,33.36988,58.78600,296.24911,31.25920,32289,39.20104,81.54600,295.47757,5.37109, 578.61328, -808.10541, -1.87023, 2.41985, -5.09924, -4.35000, 44.55000, -6.15000, 38.62063, 0,0.00000,0.00000,0.00000,0,20, 
543694, 0,35.76895,32280,33.34856,58.86900,296.33365,31.26830,32290,39.20815,80.91100,295.47757,2.92969, 583.49609, -813.47650, -2.96947, 2.32824, -1.76336, -5.10000, 46.95000, -4.65000, 38.86024, 0,0.00000,0.00000,0.00000,0,20, 
545437, 0,35.79202,32280,33.36261,58.78600,296.24911,31.27645,32289,39.21515,80.36300,295.47757,1.46484, 596.67969, -808.59369, -1.63359, 3.54962, -3.86260, -3.60000, 46.95000, -5.70000, 38.86024, 0,0.00000,0.00000,0.00000,0,20, 
547186, 0,35.81350,32280,33.32951,58.53900,296.33365,31.28492,32290,39.20389,80.59700,295.47757,9.27734, 586.91406, -799.80463, 0.23664, -0.93130, -1.83206, -4.95000, 47.10000, -5.25000, 38.90817, 0,0.00000,0.00000,0.00000,0,20, 
548932, 0,35.83404,32280,33.32569,59.20400,296.24911,31.29245,32289,39.22913,80.67500,295.39038,11.71875, 583.49609, -808.10541, -0.30534, 0.41221, -3.71756, -3.00000, 47.10000, -4.50000, 38.42894, 0,0.00000,0.00000,0.00000,0,20, 
550680, 1,35.85395,32281,33.32180,58.74500,296.24911,31.29935,32289,39.25429,80.13100,295.47757,19.04297, 588.37891, -815.42963, -2.08397, 3.59542, -4.27481, -4.80000, 46.20000, -4.95000, 38.76440, 0,0.00000,0.00000,0.00000,0,20, 
552426, 1,35.87543,32280,33.31219,58.53900,296.24911,31.30562,32290,39.24889,80.59700,295.47757,2.44141, 582.51953, -810.54681, 2.95420, -1.07634, 0.57252, -4.05000, 46.50000, -4.95000, 38.62063, 0,0.00000,0.00000,0.00000,0,20, 
554175, 1,35.89756,32281,33.30853,58.45700,296.24911,31.31440,32289,39.25596,80.67500,295.56210,10.25391, 580.56641, -801.26947, -0.95420, 1.87786, -2.09924, -3.60000, 48.00000, -5.70000, 38.90817, 0,0.00000,0.00000,0.00000,0,20, 
555921, 1,35.91967,32281,33.29899,58.29400,296.16193,31.32256,32289,39.27517,79.82300,295.56210,-10.74219, 588.86719, -810.54681, 0.41985, -1.09924, 0.68702, -3.45000, 47.10000, -4.50000, 38.62063, 0,0.00000,0.00000,0.00000,0,20, 
557670, 1,35.94147,32281,33.30116,58.45700,296.16193,31.33009,32288,39.26990,79.59400,295.56210,15.62500, 579.10156, -801.75775, -2.72519, 2.64885, -3.53435, -2.55000, 47.70000, -4.65000, 38.90817, 0,0.00000,0.00000,0.00000,0,20, 
559415, 1,35.96264,32281,33.28565,58.41600,296.24911,31.33604,32288,39.28277,80.20800,295.56210,-3.41797, 577.14844, -808.59369, 2.08397, -0.13740, 2.90840, -4.95000, 46.65000, -5.85000, 38.86024, 0,0.00000,0.00000,0.00000,0,20, 
561168, 0,35.98476,32281,33.27024,58.41600,296.24911,31.34451,32289,39.28371,79.36600,295.47757,5.37109, 586.91406, -811.03510, -2.90076, 1.12214, -0.01527, -3.75000, 47.10000, -4.05000, 38.76440, 0,0.00000,0.00000,0.00000,0,20, 
562914, 1,36.00688,32280,33.26070,58.45700,296.33365,31.35392,32289,39.30305,79.36600,295.47757,-6.83594, 588.37891, -810.05853, 1.73282, -1.05344, 1.19084, -4.20000, 47.55000, -4.50000, 38.95609, 0,0.00000,0.00000,0.00000,0,20, 
564659, 0,36.02837,32279,33.25109,58.17200,296.33365,31.36302,32290,39.31017,80.28600,295.47757,14.64844, 593.26172, -828.12494, -1.77863, 1.56489, 1.32061, -4.95000, 47.85000, -4.80000, 39.05194, 0,0.00000,0.00000,0.00000,0,20, 
566408, 0,36.04670,32280,33.24117,58.29400,296.24911,31.37023,32289,39.32318,80.36300,295.47757,16.60156, 581.05469, -797.36322, -3.31298, 1.85496, -4.06870, -4.35000, 46.50000, -3.90000, 38.86024, 0,0.00000,0.00000,0.00000,0,20, 
568153, 0,36.07166,32281,33.23191,57.97000,296.16193,31.37902,32289,39.31805,79.59400,295.47757,4.88281, 579.58984, -806.15228, 0.36641, 0.64122, 2.96947, -3.60000, 47.70000, -4.65000, 38.86024, 0,0.00000,0.00000,0.00000,0,20, 
569902, 0,36.09473,32281,33.22834,58.09100,296.24911,31.38749,32290,39.34341,79.74600,295.39038,-6.83594, 576.17188, -809.57025, 1.95420, 0.08397, -0.93130, -6.60000, 47.25000, -4.65000, 39.09986, 0,0.00000,0.00000,0.00000,0,20, 
571646, 0,36.11590,32281,33.21283,58.09100,296.24911,31.39564,32290,39.36264,80.13100,295.39038,1.46484, 587.89063, -814.45306, -1.65649, 1.19847, -4.19847, -3.45000, 46.65000, -3.75000, 38.95609, 0,0.00000,0.00000,0.00000,0,20, 
573395, 0,36.13833,32281,33.20332,58.09100,296.24911,31.40317,32290,39.38789,79.21400,295.39038,-0.97656, 587.89063, -806.64056, -1.96183, 2.42748, -3.10687, -3.30000, 46.50000, -4.95000, 38.90817, 0,0.00000,0.00000,0.00000,0,20, 
575141, 0,36.16045,32281,33.18791,57.97000,296.24911,31.41164,32291,39.40105,79.29000,295.30582,13.67187, 587.89063, -802.24603, 1.70229, -0.42748, -2.27481, -6.45000, 45.90000, -3.00000, 39.05194, 0,0.00000,0.00000,0.00000,0,20, 
576890, 0,36.18225,32282,33.18421,57.88900,296.24911,31.41979,32290,39.40195,78.83900,295.39038,4.88281, 589.35547, -813.96478, -1.64885, 0.98473, -2.41985, -4.80000, 47.70000, -4.95000, 38.95609, 0,0.00000,0.00000,0.00000,0,20, 
578631, 0,36.20564,32281,33.18653,57.84900,296.24911,31.42701,32290,39.41497,79.29000,295.47757,9.76563, 585.44922, -813.47650, -3.65649, 3.80916, -5.12214, -4.05000, 46.50000, -3.90000, 38.95609, 0,0.00000,0.00000,0.00000,0,20, 
580377, 0,36.22902,32281,33.18299,57.84900,296.24911,31.43485,32289,39.42807,79.36600,295.47757,19.53125, 584.47266, -803.22260, -0.69466, 4.64122, -1.38168, -3.45000, 45.90000, -5.25000, 38.86024, 0,0.00000,0.00000,0.00000,0,20, 
582124, 0,36.24924,32281,33.16151,57.76900,296.24911,31.44332,32289,39.44123,79.67000,295.39038,14.64844, 592.77344, -812.49994, -0.97710, 2.02290, -1.70229, -3.30000, 46.95000, -3.90000, 39.14778, 0,0.00000,0.00000,0.00000,0,20, 
583870, 1,36.27262,32281,33.14622,57.80900,296.16193,31.45116,32290,39.44821,78.31900,295.39038,6.83594, 583.00781, -809.57025, 0.77863, 2.04580, -1.61832, -4.50000, 47.55000, -4.80000, 38.76440, 0,0.00000,0.00000,0.00000,0,20, 
585623, 0,36.29537,32282,33.13675,57.76900,296.16193,31.45680,32290,39.47939,78.17200,295.47757,9.27734, 584.96094, -808.59369, 0.72519, 1.09160, 2.17557, -4.20000, 47.10000, -4.80000, 39.14778, 0,0.00000,0.00000,0.00000,0,20, 
587368, 0,36.31781,32282,33.13898,57.29300,296.16193,31.46527,32290,39.48645,78.39300,295.39038,-1.46484, 589.35547, -822.26556, -2.16794, 3.96947, -0.12214, -4.05000, 46.95000, -3.60000, 39.05194, 0,0.00000,0.00000,0.00000,0,20, 
589117, 1,36.34056,32281,33.12950,57.60900,296.16193,31.47342,32290,39.48735,79.13900,295.39038,13.18359, 583.00781, -817.87103, 2.31298, 1.43511, -1.35115, -4.20000, 46.65000, -4.05000, 38.76440, 0,0.00000,0.00000,0.00000,0,20, 
590862, 1,36.36110,32281,33.11393,57.37200,296.24911,31.48095,32290,39.52486,77.66000,295.39038,2.92969, 591.79688, -808.59369, -2.19084, 3.81679, 0.03053, -5.10000, 46.50000, -4.65000, 39.05194, 0,0.00000,0.00000,0.00000,0,20, 
592611, 1,36.38322,32281,33.11026,57.41100,296.33365,31.48817,32290,39.53178,77.66000,295.47757,4.39453, 581.54297, -811.52338, 2.82443, -0.31298, 0.11450, -4.35000, 48.00000, -3.15000, 39.14778, 0,0.00000,0.00000,0.00000,0,20, 
594357, 0,36.40660,32281,33.10671,57.33200,296.24911,31.49601,32289,39.54488,78.69000,295.47757,0.97656, 576.66016, -813.96478, 0.79389, 0.18321, 2.44275, -3.30000, 46.20000, -4.35000, 39.14778, 0,0.00000,0.00000,0.00000,0,20, 
596105, 1,36.42967,32281,33.10901,57.41100,296.24911,31.50354,32290,39.57019,78.61500,295.47757,-1.95312, 583.49609, -812.01166, 0.38931, -1.54198, 0.93130, -3.60000, 47.25000, -4.95000, 39.14778, 0,0.00000,0.00000,0.00000,0,20, 
597851, 1,36.45400,32281,33.08795,57.21400,296.33365,31.50918,32290,39.58916,78.54100,295.39038,9.27734, 580.07813, -816.89447, 1.19847, -0.02290, 1.69466, -4.80000, 47.25000, -5.70000, 39.14778, 0,0.00000,0.00000,0.00000,0,20, 
599597, 1,36.47643,32281,33.08431,57.37200,296.24911,31.51608,32290,39.61439,77.73300,295.39038,5.85937, 590.82031, -809.08197, 2.15267, 0.75573, 0.61069, -5.10000, 46.95000, -4.95000, 39.24363, 0,0.00000,0.00000,0.00000,0,20, 
601345, 1,36.49887,32281,33.06306,57.05800,296.24911,31.52518,32291,39.62764,78.24500,295.39038,14.16016, 575.19531, -792.48041, -3.15267, 2.95420, -2.80153, -3.45000, 46.65000, -4.05000, 39.24363, 0,0.00000,0.00000,0.00000,0,20, 
603090, 0,36.52478,32281,33.05976,57.09700,296.33365,31.53239,32291,39.62844,78.02500,295.39038,5.37109, 581.05469, -816.89447, -2.58779, 1.54962, -1.81679, -4.05000, 46.95000, -3.15000, 38.95609, 0,0.00000,0.00000,0.00000,0,20, 
604839, 1,36.54848,32281,33.05038,57.09700,296.33365,31.53992,32290,39.64765,77.44300,295.39038,6.83594, 597.65625, -806.64056, 1.32061, 1.25954, 2.19084, -4.20000, 45.90000, -4.80000, 39.14778, 0,0.00000,0.00000,0.00000,0,20, 
606585, 1,36.57281,32281,33.04692,56.70900,296.33365,31.54808,32291,39.66691,77.80600,295.30582,9.76563, 575.68359, -802.24603, 0.56489, 1.35115, 1.25954, -4.50000, 48.30000, -3.75000, 39.09986, 0,0.00000,0.00000,0.00000,0,20, 
608337, 1,36.59651,32281,33.03167,56.74700,296.33365,31.55466,32291,39.67376,77.08400,295.30582,-4.88281, 572.26563, -808.59369, -0.32061, 1.09924, 0.19847, -3.00000, 47.10000, -4.50000, 39.09986, 0,0.00000,0.00000,0.00000,0,20, 
610081, 1,36.62210,32281,33.02834,56.86300,296.33365,31.56282,32291,39.68080,77.08400,295.30582,10.74219, 598.14453, -808.10541, 3.22901, 0.60305, 1.80153, -4.95000, 47.10000, -4.05000, 39.14778, 0,0.00000,0.00000,0.00000,0,20, 
611829, 0,36.64675,32280,33.01318,56.70900,296.33365,31.57035,32291,39.71224,76.79900,295.30582,11.23047, 573.73047, -808.10541, 3.22137, 0.73282, 1.49618, -4.80000, 46.95000, -4.35000, 39.14778, 0,0.00000,0.00000,0.00000,0,20, 
613575, 1,36.67013,32280,33.00377,56.86300,296.41821,31.57788,32291,39.70697,77.01300,295.39038,2.92969, 579.10156, -800.78119, -1.85496, 1.85496, -1.21374, -4.80000, 48.00000, -5.70000, 39.24363, 0,0.00000,0.00000,0.00000,0,20, 
615320, 1,36.69320,32280,32.99432,56.74700,296.33365,31.58446,32290,39.71994,76.72800,295.39038,10.74219, 576.17188, -809.57025, 0.54962, 3.39695, -1.90076, -2.85000, 46.50000, -2.85000, 39.14778, 0,0.00000,0.00000,0.00000,0,20, 
617069, 1,36.71532,32280,32.99064,56.90200,296.33365,31.59136,32290,39.73908,76.65800,295.39038,2.44141, 584.47266, -806.15228, -2.19084, 4.12977, -0.75573, -3.45000, 46.65000, -3.75000, 39.24363, 0,0.00000,0.00000,0.00000,0,20, 
618815, 0,36.73996,32281,32.97548,56.55500,296.24911,31.59795,32290,39.76431,77.37100,295.39038,11.23047, 581.54297, -812.49994, 0.34351, 0.22137, 0.64885, -4.05000, 48.45000, -4.35000, 39.14778, 0,0.00000,0.00000,0.00000,0,20, 
620564, 0,36.76429,32282,32.97790,56.40200,296.16193,31.60485,32290,39.77733,77.37100,295.39038,11.71875, 594.23828, -812.01166, 0.08397, -1.94656, -0.38168, -4.05000, 46.20000, -4.95000, 39.38740, 0,0.00000,0.00000,0.00000,0,20, 
622307, 0,36.78894,32282,32.96274,56.55500,296.16193,31.61238,32291,39.79042,76.23600,295.39038,1.95312, 583.49609, -803.22260, -1.43511, 2.31298, -3.86260, -3.60000, 48.45000, -3.90000, 39.29155, 0,0.00000,0.00000,0.00000,0,20, 
624056, 0,36.81138,32281,32.94149,56.59300,296.24911,31.62022,32290,39.80355,77.08400,295.39038,5.85937, 583.49609, -810.54681, 0.29771, 0.87023, 1.45802, -3.75000, 46.35000, -4.50000, 39.43532, 0,0.00000,0.00000,0.00000,0,20, 
625802, 0,36.83444,32281,32.93204,56.13600,296.24911,31.62775,32290,39.81665,76.09600,295.47757,7.32422, 583.00781, -814.45306, -1.70229, 4.07634, -0.38931, -3.30000, 45.00000, -5.40000, 39.57909, 0,0.00000,0.00000,0.00000,0,20, 
627551, 0,36.85814,32282,32.91679,56.44000,296.24911,31.63465,32290,39.82967,76.51700,295.47757,14.16016, 583.00781, -804.68744, 0.54198, -0.72519, 1.64885, -5.25000, 47.10000, -3.45000, 39.57909, 0,0.00000,0.00000,0.00000,0,20, 
629296, 0,36.88121,32281,32.91908,56.02300,296.33365,31.64312,32291,39.85513,76.65800,295.39038,9.76563, 584.96094, -810.54681, 0.57252, 2.29771, 0.03817, -4.80000, 47.25000, -3.15000, 39.43532, 0,0.00000,0.00000,0.00000,0,20, 
631042, 0,36.90680,32280,32.89814,56.17400,296.33365,31.65064,32291,39.85598,76.09600,295.39038,16.11328, 583.00781, -801.75775, 1.45038, 0.54962, 0.37405, -3.45000, 46.65000, -4.50000, 39.48324, 0,0.00000,0.00000,0.00000,0,20, 
632795, 0,36.93113,32281,32.89468,55.91100,296.33365,31.65754,32289,39.86288,76.23600,295.56210,13.18359, 577.63672, -804.68744, -1.04580, 2.56489, -2.54198, -4.35000, 46.95000, -6.15000, 39.29155, 0,0.00000,0.00000,0.00000,0,20, 
634541, 1,36.95736,32281,32.88555,56.06100,296.33365,31.66507,32289,39.87598,76.30600,295.56210,8.30078, 579.10156, -814.94135, -2.95420, 2.57252, 0.53435, -3.60000, 45.75000, -3.90000, 39.57909, 0,0.00000,0.00000,0.00000,0,20, 
636289, 1,36.98169,32281,32.87622,55.79900,296.33365,31.67228,32289,39.88905,76.58700,295.64932,4.88281, 587.40234, -805.66400, -1.74046, 2.01527, 0.17557, -4.80000, 47.25000, -5.40000, 39.57909, 0,0.00000,0.00000,0.00000,0,20, 
638034, 0,37.00539,32281,32.86684,55.68700,296.24911,31.67856,32288,39.87750,76.94100,295.64932,-1.95312, 583.00781, -809.08197, 1.07634, -1.57252, 1.48855, -3.45000, 47.10000, -4.50000, 39.62701, 0,0.00000,0.00000,0.00000,0,20, 
639780, 0,37.03130,32282,32.85180,55.87300,296.33365,31.68357,32289,39.78618,77.29900,295.47757,5.85937, 593.26172, -800.29291, -1.64122, 2.96183, -1.51908, -2.10000, 46.20000, -4.95000, 39.48324, 0,0.00000,0.00000,0.00000,0,20, 
641526, 0,37.05721,32281,32.84264,55.72400,296.24911,31.69079,32289,39.63395,78.83900,295.56210,-0.48828, 579.58984, -811.03510, -3.81679, 1.83969, 1.85496, -3.45000, 47.10000, -4.50000, 39.43532, 0,0.00000,0.00000,0.00000,0,20, 
643275, 0,37.08439,32281,32.83360,55.72400,296.33365,31.69675,32289,39.60402,79.29000,295.56210,5.37109, 571.28906, -804.19916, -0.53435, 1.32061, 0.13740, -4.20000, 47.10000, -4.80000, 39.57909, 0,0.00000,0.00000,0.00000,0,20, 
645020, 0,37.10966,32281,32.81850,55.53900,296.24911,31.70396,32288,39.52533,79.13900,295.56210,4.88281, 588.37891, -818.35931, 0.25954, 4.09924, -2.43511, -3.30000, 46.95000, -4.65000, 39.57909, 0,0.00000,0.00000,0.00000,0,20, 
646766, 0,37.13431,32281,32.80921,55.72400,296.33365,31.71180,32288,39.55066,78.24500,295.56210,5.37109, 579.10156, -804.68744, 1.97710, -0.62595, 0.22901, -4.95000, 45.90000, -4.50000, 39.62701, 0,0.00000,0.00000,0.00000,0,20, 
648515, 1,37.15738,32280,32.79976,55.42800,296.33365,31.72027,32288,39.59443,77.95200,295.56210,19.53125, 591.79688, -814.45306, -2.86260, 1.99237, -0.69466, -4.80000, 47.25000, -4.65000, 39.57909, 0,0.00000,0.00000,0.00000,0,20, 
650261, 0,37.18360,32280,32.77888,55.61300,296.33365,31.72749,32289,39.65030,77.29900,295.47757,12.20703, 585.93750, -813.96478, 0.41985, 2.29771, 1.50382, -4.35000, 47.70000, -4.65000, 39.48324, 0,0.00000,0.00000,0.00000,0,20, 
652009, 0,37.20856,32280,32.76376,55.61300,296.41821,31.73188,32288,39.70588,77.51500,295.64932,3.90625, 585.44922, -811.03510, 0.64885, -0.06107, -0.25954, -3.75000, 47.55000, -4.05000, 39.57909, 0,0.00000,0.00000,0.00000,0,20, 
653755, 0,37.23290,32280,32.75443,55.42800,296.33365,31.73783,32288,39.68206,78.46700,295.64932,0.00000, 578.12500, -802.24603, 0.88550, -1.70229, 1.28244, -4.20000, 47.85000, -3.75000, 39.48324, 0,0.00000,0.00000,0.00000,0,20, 
655504, 1,37.25691,32279,32.76268,55.35400,296.41821,31.74348,32288,39.60926,79.44200,295.64932,7.81250, 584.47266, -807.61713, 1.09160, -0.07634, 3.13740, -3.45000, 46.35000, -2.70000, 39.57909, 0,0.00000,0.00000,0.00000,0,20, 
657254, 0,37.28188,32280,32.72995,55.28100,296.41821,31.75007,32287,39.56718,79.36600,295.64932,11.71875, 588.37891, -808.10541, 1.94656, 1.82443, 0.06870, -3.60000, 46.95000, -3.60000, 39.91455, 0,0.00000,0.00000,0.00000,0,20, 
659002, 0,37.30684,32279,32.72655,55.39100,296.41821,31.75541,32287,39.52496,79.44200,295.64932,-3.41797, 591.30859, -811.03510, 1.74046, 0.82443, 0.41985, -5.85000, 45.45000, -4.95000, 39.77078, 0,0.00000,0.00000,0.00000,0,20, 
660748, 1,37.33117,32279,32.71137,55.39100,296.41821,31.76324,32289,39.52584,78.98900,295.56210,4.39453, 580.07813, -815.42963, -3.58779, 3.94656, -2.98473, -2.55000, 45.45000, -4.95000, 39.67493, 0,0.00000,0.00000,0.00000,0,20, 
662494, 0,37.35582,32279,32.69621,55.28100,296.33365,31.76983,32289,39.55104,78.39300,295.56210,9.76563, 592.77344, -808.10541, -1.81679, 3.35878, -2.35115, -3.00000, 47.10000, -4.80000, 39.81870, 0,0.00000,0.00000,0.00000,0,20, 
664240, 0,37.37951,32279,32.68682,55.24400,296.41821,31.77579,32288,39.61288,77.87900,295.56210,-7.32422, 583.98438, -815.42963, -1.78626, 1.48092, -0.51908, -4.80000, 47.70000, -2.85000, 39.67493, 0,0.00000,0.00000,0.00000,0,20, 
665986, 0,37.40479,32278,32.67172,55.02600,296.50540,31.78175,32288,39.61355,78.24500,295.56210,16.11328, 580.56641, -805.66400, 0.70992, 0.97710, 0.54962, -4.80000, 47.70000, -3.15000, 39.81870, 0,0.00000,0.00000,0.00000,0,20, 
667734, 1,37.42818,32278,32.65057,55.09800,296.41821,31.78708,32288,39.60802,78.98900,295.64932,5.37109, 583.00781, -811.52338, -1.66412, 3.72519, -2.57252, -5.25000, 47.55000, -3.75000, 39.29155, 0,0.00000,0.00000,0.00000,0,20, 
669479, 0,37.45314,32279,32.64131,54.91700,296.41821,31.79116,32288,39.51061,80.20800,295.56210,4.88281, 577.63672, -812.98822, -1.22901, 0.45038, -3.64122, -5.70000, 47.10000, -4.05000, 39.96247, 0,0.00000,0.00000,0.00000,0,20, 
671228, 1,37.47684,32279,32.63193,54.91700,296.50540,31.79618,32288,39.38281,80.20800,295.64932,7.81250, 576.17188, -816.89447, 1.76336, -1.12214, 1.13740, -4.20000, 46.65000, -4.50000, 39.91455, 0,0.00000,0.00000,0.00000,0,20, 
672973, 0,37.50085,32278,32.59911,54.84500,296.58997,31.80276,32288,39.27970,80.05400,295.64932,5.37109, 588.86719, -806.64056, 1.06107, -0.74046, 0.23664, -2.70000, 45.90000, -4.50000, 39.57909, 0,0.00000,0.00000,0.00000,0,20, 
674722, 1,37.52518,32278,32.59565,54.77300,296.50540,31.80621,32289,39.17020,81.22700,295.56210,1.95312, 594.72656, -800.29291, -2.25954, 4.01527, -1.27481, -3.00000, 47.85000, -4.05000, 39.81870, 0,0.00000,0.00000,0.00000,0,20, 
676468, 0,37.54857,32279,32.57450,54.84500,296.50540,31.80935,32288,39.01196,81.38600,295.56210,3.41797, 589.84375, -817.87103, 0.58015, -1.12977, 1.66412, -4.80000, 47.25000, -4.95000, 39.81870, 0,0.00000,0.00000,0.00000,0,20, 
678217, 0,37.57258,32279,32.55342,54.70100,296.41821,31.81500,32290,38.94553,81.30600,295.47757,3.90625, 571.28906, -812.98822, -0.23664, 2.00763, -1.81679, -2.85000, 46.50000, -4.95000, 39.81870, 0,0.00000,0.00000,0.00000,0,20, 
679962, 0,37.59502,32279,32.54391,54.84500,296.41821,31.81939,32290,38.93992,81.30600,295.56210,16.60156, 583.00781, -817.38275, 0.15267, 0.79389, -2.39695, -5.25000, 48.60000, -5.25000, 39.67493, 0,0.00000,0.00000,0.00000,0,20, 
681712, 0,37.61840,32279,32.51691,54.55800,296.50540,31.82252,32288,38.95855,81.54600,295.56210,0.48828, 581.05469, -820.80072, 1.92366, 0.61832, 3.23664, -4.20000, 47.10000, -5.85000, 39.57909, 0,0.00000,0.00000,0.00000,0,20, 
683461, 0,37.63957,32278,32.51313,54.70100,296.50540,31.82503,32288,38.98321,81.94800,295.56210,0.48828, 583.00781, -806.64056, 0.61832, 0.43511, -1.42748, -5.85000, 47.25000, -3.60000, 39.91455, 0,0.00000,0.00000,0.00000,0,20, 
685206, 0,37.66454,32278,32.50387,54.55800,296.50540,31.83005,32289,39.01425,81.30600,295.56210,14.64844, 581.54297, -820.80072, 0.09160, 1.88550, -1.42748, -2.70000, 49.35000, -4.05000, 39.91455, 0,0.00000,0.00000,0.00000,0,20, 
686955, 1,37.68855,32280,32.48279,54.55800,296.41821,31.83256,32289,39.08770,80.99000,295.56210,17.08984, 592.77344, -817.87103, 1.24427, 2.27481, 1.93130, -2.40000, 47.55000, -3.75000, 40.01039, 0,0.00000,0.00000,0.00000,0,20, 
688698, 1,37.71288,32280,32.46174,54.55800,296.41821,31.83538,32288,39.14903,79.59400,295.56210,14.64844, 586.91406, -801.75775, -1.99237, 1.13740, 0.96947, -3.45000, 47.85000, -3.75000, 40.01039, 0,0.00000,0.00000,0.00000,0,20, 
690447, 0,37.73879,32279,32.42913,54.48700,296.41821,31.83915,32289,39.21048,79.29000,295.56210,13.18359, 569.33594, -817.87103, 0.74809, -2.39695, 0.61069, -2.85000, 47.70000, -3.90000, 39.81870, 0,0.00000,0.00000,0.00000,0,20, 
692192, 0,37.76281,32280,32.42564,54.27400,296.33365,31.84448,32288,39.24160,78.83900,295.64932,0.48828, 577.14844, -806.64056, 0.45802, 0.60305, -1.02290, -4.50000, 47.85000, -3.75000, 39.67493, 0,0.00000,0.00000,0.00000,0,20, 
693941, 0,37.78524,32279,32.40440,54.38000,296.33365,31.84824,32288,39.26034,78.61500,295.56210,1.95312, 585.44922, -808.59369, -1.33588, 2.97710, -1.68702, -2.85000, 47.70000, -4.35000, 39.96247, 0,0.00000,0.00000,0.00000,0,20, 
695687, 1,37.80831,32279,32.38324,54.38000,296.41821,31.85295,32289,39.29140,78.46700,295.56210,1.95312, 591.30859, -803.22260, 0.64122, 0.31298, 0.83969, -3.45000, 48.30000, -5.55000, 39.91455, 0,0.00000,0.00000,0.00000,0,20, 
697432, 0,37.83106,32279,32.37376,54.38000,296.41821,31.85577,32288,39.31614,78.24500,295.64932,10.25391, 587.40234, -806.15228, -0.75573, 0.27481, 1.45038, -2.70000, 46.35000, -3.75000, 39.91455, 0,0.00000,0.00000,0.00000,0,20, 
699181, 1,37.85287,32279,32.34074,54.06300,296.41821,31.85954,32288,39.32267,77.95200,295.64932,3.41797, 584.47266, -814.45306, -1.15267, 1.67176, -3.12214, -3.75000, 48.60000, -3.00000, 40.10624, 0,0.00000,0.00000,0.00000,0,20, 
700926, 0,37.87530,32279,32.33123,54.30900,296.33365,31.86393,32287,39.32927,77.66000,295.56210,3.90625, 581.05469, -805.66400, 1.24427, 1.40458, -2.61069, -4.20000, 47.10000, -2.25000, 39.91455, 0,0.00000,0.00000,0.00000,0,20, 
702675, 0,37.89710,32279,32.32166,54.30900,296.41821,31.86706,32288,39.32962,77.73300,295.56210,0.00000, 587.89063, -812.98822, 2.35115, -0.59542, 2.14504, -4.20000, 46.65000, -4.50000, 40.10624, 0,0.00000,0.00000,0.00000,0,20, 
704421, 1,37.91669,32279,32.28259,54.09800,296.33365,31.87239,32289,39.27524,78.02500,295.56210,10.74219, 580.07813, -810.05853, -1.30534, 3.74046, -2.00763, -4.05000, 45.45000, -3.60000, 40.15416, 0,0.00000,0.00000,0.00000,0,20, 
706173, 1,37.93818,32280,32.26713,54.09800,296.33365,31.87836,32289,39.20873,78.46700,295.56210,4.88281, 583.98438, -809.08197, -1.44275, 1.64885, -2.66412, -2.85000, 46.20000, -3.90000, 39.96247, 0,0.00000,0.00000,0.00000,0,20, 
707917, 0,37.95935,32280,32.23992,54.06300,296.33365,31.88588,32289,39.17295,78.24500,295.47757,-4.88281, 579.10156, -813.96478, 1.67176, 1.49618, -1.20611, -5.55000, 47.70000, -4.65000, 40.01039, 0,0.00000,0.00000,0.00000,0,20, 
709665, 0,37.98115,32279,32.21864,54.02800,296.33365,31.89059,32289,39.16737,78.09800,295.56210,-4.88281, 579.10156, -808.10541, -1.80153, 3.50382, -2.53435, -2.55000, 47.25000, -4.65000, 40.34586, 0,0.00000,0.00000,0.00000,0,20, 
711411, 0,38.00201,32280,32.21483,54.13300,296.24911,31.89749,32289,39.17424,78.09800,295.56210,12.69531, 584.47266, -810.05853, 0.26718, -0.16031, 1.32061, -2.40000, 47.85000, -4.80000, 40.01039, 0,0.00000,0.00000,0.00000,0,20, 
713159, 1,38.02350,32280,32.18766,54.16800,296.33365,31.90188,32289,39.18693,78.54100,295.56210,10.74219, 586.42578, -809.08197, -0.17557, 2.82443, 1.41985, -3.00000, 46.35000, -3.75000, 40.29793, 0,0.00000,0.00000,0.00000,0,20, 
714905, 1,38.04340,32280,32.16034,54.02800,296.33365,31.90533,32288,39.12018,79.82300,295.56210,10.25391, 591.79688, -803.71088, 0.58015, -2.32824, 1.73282, -3.00000, 46.35000, -3.75000, 40.10624, 0,0.00000,0.00000,0.00000,0,20, 
716651, 1,38.06489,32279,32.13318,53.85400,296.33365,31.90972,32289,38.99258,80.51900,295.56210,8.30078, 584.96094, -811.03510, -0.79389, 2.44275, -2.28244, -3.00000, 48.60000, -3.45000, 40.34586, 0,0.00000,0.00000,0.00000,0,20, 
718399, 1,38.08385,32279,32.11163,53.85400,296.41821,31.91286,32288,38.86495,81.62600,295.64932,6.34766, 588.86719, -813.96478, 0.12977, -0.50382, 0.93893, -3.75000, 46.35000, -3.45000, 40.15416, 0,0.00000,0.00000,0.00000,0,20, 
720145, 1,38.10566,32279,32.08450,53.75000,296.50540,31.91317,32288,38.67622,82.02900,295.64932,10.74219, 589.84375, -806.64056, 1.77099, -1.19084, 0.22137, -4.05000, 46.50000, -3.60000, 39.91455, 0,0.00000,0.00000,0.00000,0,20, 
721894, 1,38.12461,32278,32.06295,53.85400,296.41821,31.91505,32288,38.55477,82.35400,295.64932,13.67187, 580.07813, -807.12885, 1.81679, 0.81679, -0.76336, -3.45000, 47.10000, -2.25000, 40.29793, 0,0.00000,0.00000,0.00000,0,20, 
723640, 0,38.14452,32279,32.04734,53.85400,296.50540,31.91787,32289,38.45174,82.84600,295.64932,3.41797, 584.96094, -805.17572, -4.41985, 3.69466, -2.40458, -5.25000, 48.30000, -3.75000, 40.29793, 0,0.00000,0.00000,0.00000,0,20, 
725389, 0,38.16411,32278,32.02000,53.88900,296.50540,31.91725,32288,38.37876,83.51200,295.64932,8.78906, 581.54297, -807.12885, -1.77863, 2.87023, -1.11450, -4.20000, 49.80000, -3.45000, 40.44170, 0,0.00000,0.00000,0.00000,0,20, 
727134, 0,38.18181,32279,32.00418,53.71500,296.41821,31.91819,32288,38.31207,83.59600,295.73386,10.74219, 576.66016, -806.64056, 0.05344, 0.36641, 4.06870, -4.05000, 46.50000, -4.35000, 40.20209, 0,0.00000,0.00000,0.00000,0,20, 
728887, 0,38.19919,32280,31.97663,53.61200,296.33365,31.91693,32287,38.25122,84.18900,295.73386,11.23047, 581.05469, -810.05853, -0.04580, -0.51145, 4.69466, -3.00000, 47.10000, -3.75000, 40.29793, 0,0.00000,0.00000,0.00000,0,20, 
730633, 0,38.21625,32280,31.94906,53.85400,296.33365,31.91725,32287,38.19057,84.36000,295.73386,11.71875, 583.00781, -814.45306, -0.06870, -0.63359, -0.93893, -3.45000, 47.10000, -3.45000, 40.29793, 0,0.00000,0.00000,0.00000,0,20, 
732378, 0,38.23426,32279,31.91573,53.68100,296.41821,31.91442,32287,38.11747,84.70300,295.73386,5.37109, 583.00781, -816.40619, 1.32061, -0.33588, 2.98473, -1.65000, 47.10000, -3.75000, 40.10624, 0,0.00000,0.00000,0.00000,0,20, 
734127, 0,38.25228,32279,31.89410,53.57700,296.41821,31.91317,32286,38.04458,85.48700,295.64932,-4.39453, 589.35547, -811.03510, 0.69466, 0.45802, -0.05344, -4.50000, 47.55000, -4.05000, 40.01039, 0,0.00000,0.00000,0.00000,0,20, 
735872, 0,38.27060,32278,31.86665,53.54300,296.41821,31.91066,32287,37.96553,85.57500,295.64932,-3.90625, 590.82031, -805.66400, -2.48092, 1.83206, -1.30534, -4.05000, 46.50000, -3.60000, 40.15416, 0,0.00000,0.00000,0.00000,0,20, 
737620, 0,38.28925,32279,31.84509,53.64600,296.41821,31.90564,32288,37.88624,86.19700,295.64932,6.34766, 585.93750, -819.82416, 0.19847, 0.35115, 1.12214, -3.45000, 47.85000, -3.75000, 40.34586, 0,0.00000,0.00000,0.00000,0,20, 
739365, 0,38.30663,32279,31.81756,53.64600,296.33365,31.90251,32288,37.80719,86.10700,295.64932,9.76563, 576.66016, -816.40619, 0.56489, -0.79389, -1.90076, -3.75000, 46.65000, -3.75000, 40.29793, 0,0.00000,0.00000,0.00000,0,20, 
741114, 0,38.32368,32278,31.80169,53.57700,296.50540,31.90376,32288,37.82549,85.57500,295.64932,11.71875, 577.63672, -800.78119, -0.34351, 4.56489, -1.58779, -2.85000, 47.70000, -3.90000, 40.29793, 0,0.00000,0.00000,0.00000,0,20, 
742860, 0,38.34264,32278,31.76847,53.47400,296.50540,31.90251,32287,37.87379,85.31200,295.64932,9.27734, 599.12109, -819.33588, -3.14504, 2.77863, -2.04580, -3.45000, 47.85000, -4.50000, 40.48962, 0,0.00000,0.00000,0.00000,0,20, 
744617, 0,38.36129,32279,31.74691,53.23500,296.50540,31.89843,32287,37.83702,85.48700,295.64932,1.95312, 589.84375, -813.96478, -2.38931, 2.18321, -1.83969, -4.50000, 48.30000, -5.25000, 40.34586, 0,0.00000,0.00000,0.00000,0,20, 
746363, 0,38.38056,32278,31.71958,53.33700,296.41821,31.89686,32287,37.81870,85.48700,295.73386,10.74219, 575.68359, -812.01166, -2.35115, 2.61069, -0.15267, -3.45000, 47.55000, -3.00000, 40.53754, 0,0.00000,0.00000,0.00000,0,20, 
748110, 0,38.39858,32278,31.69212,53.50800,296.41821,31.89498,32287,37.78217,86.28600,295.73386,5.85937, 567.87109, -805.66400, 1.02290, 0.16031, -3.35878, -4.80000, 46.95000, -5.40000, 40.44170, 0,0.00000,0.00000,0.00000,0,20, 
749854, 0,38.41817,32279,31.67650,53.37100,296.41821,31.88902,32287,37.76943,86.19700,295.73386,7.32422, 584.47266, -815.91791, -0.22901, -0.83969, -0.34351, -5.25000, 47.55000, -4.05000, 40.48962, 0,0.00000,0.00000,0.00000,0,20, 
751600, 0,38.43555,32280,31.66067,53.23500,296.33365,31.88620,32287,37.76307,86.19700,295.73386,8.78906, 572.75391, -812.01166, -1.77863, 0.59542, 0.40458, -3.75000, 46.65000, -3.75000, 40.44170, 0,0.00000,0.00000,0.00000,0,20, 
753352, 0,38.44819,32281,31.62686,53.30300,296.24911,31.88369,32288,37.79911,85.48700,295.64932,0.97656, 587.40234, -818.84760, -0.77863, 0.48092, 0.00763, -3.30000, 48.45000, -3.60000, 40.53754, 0,0.00000,0.00000,0.00000,0,20, 
755098, 0,38.46399,32280,31.59336,53.30300,296.33365,31.88400,32288,37.81124,85.40000,295.56210,1.46484, 582.51953, -812.49994, -1.59542, 2.32061, -1.82443, -4.95000, 47.10000, -4.05000, 40.68131, 0,0.00000,0.00000,0.00000,0,20, 
756846, 0,38.48200,32280,31.57759,53.23500,296.33365,31.88118,32288,37.84726,84.96300,295.64932,-3.90625, 587.40234, -798.82806, 1.06107, -0.16031, -0.18321, -2.70000, 47.85000, -5.25000, 40.34586, 0,0.00000,0.00000,0.00000,0,20, 
758592, 0,38.49874,32280,31.55003,53.81900,296.33365,31.87741,32287,37.80449,86.01800,295.73386,14.16016, 582.51953, -809.08197, -0.94656, 0.24427, 0.60305, -2.55000, 48.00000, -2.10000, 40.48962, 0,0.00000,0.00000,0.00000,0,20, 
760339, 0,38.51612,32279,31.51086,53.95800,296.33365,31.87898,32287,37.78045,85.31200,295.73386,12.69531, 586.42578, -808.10541, -1.46565, 2.09160, 1.63359, -5.55000, 47.25000, -3.90000, 40.63339, 0,0.00000,0.00000,0.00000,0,20, 
762084, 0,38.53066,32280,31.49476,53.26900,296.33365,31.87992,32287,37.82896,83.93400,295.73386,3.41797, 587.89063, -815.42963, 0.45038, 0.06870, -1.95420, -3.60000, 46.20000, -5.70000, 40.53754, 0,0.00000,0.00000,0.00000,0,20, 
763833, 0,38.54709,32280,31.44968,53.50800,296.24911,31.87836,32286,37.81064,84.36000,295.73386,-4.88281, 576.66016, -814.45306, -1.04580, 3.53435, -3.66412, -5.10000, 46.20000, -3.60000, 40.53754, 0,0.00000,0.00000,0.00000,0,20, 
765579, 1,38.56479,32281,31.42805,53.26900,296.24911,31.87553,32287,37.73167,84.36000,295.73386,10.25391, 584.47266, -820.31244, 1.51145, 1.87786, 0.60305, -4.95000, 45.90000, -5.85000, 40.29793, 0,0.00000,0.00000,0.00000,0,20, 
767324, 0,38.58280,32281,31.39480,53.47400,296.24911,31.87177,32287,37.62241,84.96300,295.73386,15.62500, 584.47266, -809.57025, -1.28244, 2.73282, -1.54962, -3.00000, 47.10000, -2.25000, 40.63339, 0,0.00000,0.00000,0.00000,0,20, 
769073, 0,38.59639,32281,31.37862,53.33700,296.16193,31.86957,32287,37.57986,85.31200,295.73386,6.34766, 588.37891, -813.47650, 1.14504, 0.68702, 0.53435, -4.80000, 48.00000, -3.15000, 40.63339, 0,0.00000,0.00000,0.00000,0,20, 
770819, 0,38.60998,32282,31.35077,53.64600,296.16193,31.86895,32287,37.56166,85.13700,295.73386,12.20703, 579.10156, -814.94135, -0.23664, 0.96183, -4.66412, -2.70000, 47.55000, -3.45000, 40.72924, 0,0.00000,0.00000,0.00000,0,20, 
772568, 0,38.62482,32281,31.31722,53.44000,296.24911,31.86518,32287,37.45856,84.10300,295.64932,-5.37109, 590.82031, -814.45306, 0.03053, -0.43511, -0.03817, -3.00000, 46.65000, -3.00000, 40.63339, 0,0.00000,0.00000,0.00000,0,20, 
774312, 0,38.63999,32281,31.29537,53.40600,296.24911,31.86455,32287,37.34378,85.22400,295.73386,10.74219, 580.56641, -812.49994, -0.68702, 4.13740, -0.93893, -3.00000, 47.55000, -3.75000, 40.44170, 0,0.00000,0.00000,0.00000,0,20, 
776066, 0,38.65390,32281,31.26757,53.13400,296.24911,31.86299,32287,37.28931,85.31200,295.73386,11.71875, 581.05469, -811.52338, -1.66412, 1.86260, -0.59542, -6.00000, 47.10000, -2.70000, 40.44170, 0,0.00000,0.00000,0.00000,0,20, 
777811, 0,38.66875,32282,31.21656,53.10000,296.16193,31.86142,32287,37.25295,85.48700,295.73386,10.74219, 587.40234, -811.52338, -1.91603, 1.84733, -2.32824, -5.55000, 46.95000, -3.15000, 40.68131, 0,0.00000,0.00000,0.00000,0,20, 
779559, 0,38.68233,32281,31.21204,52.69700,296.16193,31.86048,32286,37.24078,85.22400,295.73386,6.34766, 585.93750, -800.78119, 1.73282, 1.70992, -0.51145, -4.05000, 47.25000, -4.35000, 40.48962, 0,0.00000,0.00000,0.00000,0,20, 
781305, 0,38.69782,32282,31.16109,52.96500,296.16193,31.85922,32287,37.23462,85.22400,295.73386,9.76563, 593.26172, -812.49994, -0.67176, 2.17557, -0.51908, -4.35000, 48.45000, -4.95000, 40.72924, 0,0.00000,0.00000,0.00000,0,20, 
783053, 1,38.71141,32281,31.14493,53.20100,296.33365,31.85765,32288,37.25858,85.48700,295.64932,1.46484, 582.51953, -814.45306, -1.93893, 3.22137, -2.22137, -5.10000, 46.50000, -4.35000, 40.72924, 0,0.00000,0.00000,0.00000,0,20, 
784799, 1,38.72626,32281,31.11141,52.53100,296.24911,31.85859,32288,37.27678,85.13700,295.64932,0.97656, 592.77344, -811.03510, -0.58015, 0.53435, 4.51145, -4.50000, 46.65000, -3.00000, 40.63339, 0,0.00000,0.00000,0.00000,0,20, 
786543, 2,38.74111,32281,31.07790,53.50800,296.16193,31.85922,32288,37.35528,84.44500,295.73386,1.46484, 581.54297, -817.38275, 0.90076, 0.25954, -0.51908, -5.25000, 46.65000, -3.45000, 40.53754, 0,0.00000,0.00000,0.00000,0,20, 
788289, 1,38.75660,32281,31.03282,52.76400,296.16193,31.85420,32287,37.33664,85.84100,295.64932,9.76563, 584.96094, -804.19916, -3.67176, 1.91603, -2.54198, -3.30000, 45.75000, -3.90000, 40.68131, 0,0.00000,0.00000,0.00000,0,20, 
790035, 1,38.77145,32282,31.01678,53.33700,296.16193,31.85107,32288,37.23978,87.19100,295.64932,-0.48828, 592.28516, -807.12885, -3.08397, 4.67176, 0.50382, -5.10000, 45.75000, -4.95000, 40.68131, 0,0.00000,0.00000,0.00000,0,20, 
791784, 0,38.78819,32282,30.99511,52.69700,296.16193,31.84762,32287,37.14898,86.73600,295.73386,0.97656, 584.47266, -809.08197, -1.61832, 1.91603, -2.54962, -4.95000, 48.60000, -4.80000, 40.68131, 0,0.00000,0.00000,0.00000,0,20, 
793529, 0,38.80273,32282,30.96159,53.37100,296.16193,31.84229,32287,37.04597,87.10000,295.73386,8.78906, 588.86719, -821.77728, -3.29771, 0.51908, -0.09160, -3.60000, 45.75000, -3.15000, 40.68131, 0,0.00000,0.00000,0.00000,0,20, 
795278, 0,38.81663,32283,30.93964,52.66400,296.16193,31.83789,32287,36.94314,87.74300,295.81842,14.64844, 579.58984, -803.71088, -0.10687, 0.22137, 3.09924, -4.95000, 46.65000, -4.80000, 40.82508, 0,0.00000,0.00000,0.00000,0,20, 
797024, 1,38.83401,32282,30.89477,53.26900,296.16193,31.83727,32287,36.88891,87.28300,295.81842,2.44141, 585.93750, -807.61713, -1.87023, 3.22901, -1.24427, -2.40000, 45.15000, -4.50000, 40.82508, 0,0.00000,0.00000,0.00000,0,20, 
798773, 1,38.84855,32281,30.86708,52.93100,296.33365,31.83852,32287,36.91914,87.28300,295.73386,5.85937, 571.77734, -810.05853, 0.93893, -1.56489, 0.33588, -3.30000, 46.95000, -4.95000, 40.96885, 0,0.00000,0.00000,0.00000,0,20, 
800523, 1,38.86340,32280,30.85686,52.89800,296.24911,31.83695,32286,36.88888,87.83600,295.81842,8.30078, 584.47266, -809.57025, 1.25191, -0.61832, 0.04580, -4.80000, 45.75000, -3.60000, 40.96885, 0,0.00000,0.00000,0.00000,0,20, 
802268, 1,38.87762,32281,30.82333,52.63100,296.24911,31.83664,32286,36.90689,87.00900,295.73386,8.30078, 580.07813, -811.52338, -0.48855, 1.85496, -0.02290, -2.70000, 46.65000, -4.80000, 40.72924, 0,0.00000,0.00000,0.00000,0,20, 
804016, 1,38.89247,32281,30.79568,53.20100,296.24911,31.83758,32287,36.91301,87.00900,295.64932,12.20703, 586.42578, -812.49994, -0.38168, -0.40458, 1.02290, -4.20000, 48.30000, -3.45000, 40.72924, 0,0.00000,0.00000,0.00000,0,20, 
805760, 1,38.90985,32282,30.77409,53.23500,296.24911,31.83789,32287,36.93110,87.65100,295.73386,4.88281, 578.12500, -811.52338, 1.58779, 0.73282, 1.64122, -4.05000, 46.20000, -3.90000, 40.87300, 0,0.00000,0.00000,0.00000,0,20, 
807507, 0,38.92691,32281,30.74084,52.93100,296.24911,31.83664,32287,36.98515,87.00900,295.64932,17.57813, 576.66016, -821.28900, 1.66412, -0.13740, 0.40458, -5.10000, 47.25000, -4.35000, 40.72924, 0,0.00000,0.00000,0.00000,0,20, 
809253, 0,38.94271,32281,30.71329,52.99900,296.33365,31.83632,32288,37.02728,86.73600,295.64932,8.78906, 585.44922, -810.54681, -1.86260, 1.86260, -0.86260, -4.80000, 48.00000, -2.85000, 40.96885, 0,0.00000,0.00000,0.00000,0,20, 
811001, 0,38.95757,32280,30.69727,52.89800,296.33365,31.83538,32287,37.06934,86.73600,295.73386,-0.48828, 580.07813, -808.59369, 1.06107, -1.17557, 1.33588, -4.50000, 48.60000, -4.80000, 40.72924, 0,0.00000,0.00000,0.00000,0,20, 
812747, 0,38.97242,32280,30.67544,52.89800,296.33365,31.83507,32288,37.13559,86.37600,295.56210,11.71875, 588.37891, -816.40619, -3.36641, 3.06870, -5.62595, -5.55000, 46.50000, -3.90000, 40.68131, 0,0.00000,0.00000,0.00000,0,20, 
814496, 0,38.98790,32280,30.65368,52.86400,296.33365,31.83445,32288,37.15963,86.82700,295.64932,13.67187, 585.93750, -798.82806, -0.74809, 1.70229, -2.43511, -4.50000, 47.10000, -4.50000, 41.01677, 0,0.00000,0.00000,0.00000,0,20, 
816242, 0,39.00560,32281,30.63212,52.86400,296.24911,31.83319,32288,37.15950,86.37600,295.64932,-1.95312, 582.03125, -823.24213, 2.11450, -2.52672, 0.32061, -2.70000, 47.10000, -4.50000, 40.72924, 0,0.00000,0.00000,0.00000,0,20, 
817987, 0,39.02139,32281,30.60458,52.99900,296.33365,31.83256,32289,37.15943,86.55600,295.64932,-1.95312, 576.17188, -807.61713, 0.81679, -0.77863, -1.16031, -4.05000, 47.70000, -4.35000, 40.96885, 0,0.00000,0.00000,0.00000,0,20, 
819736, 2,39.03814,32280,30.57714,52.86400,296.41821,31.83068,32288,37.14717,86.82700,295.64932,12.20703, 580.07813, -797.36322, -0.66412, 3.53435, 1.16031, -4.35000, 46.20000, -2.85000, 40.82508, 0,0.00000,0.00000,0.00000,0,20, 
821482, 0,39.05457,32280,30.54386,52.83100,296.24911,31.83005,32287,37.17122,86.46600,295.64932,5.37109, 594.72656, -807.61713, 1.09160, 0.53435, 0.94656, -4.80000, 48.00000, -4.35000, 41.01677, 0,0.00000,0.00000,0.00000,0,20, 
823231, 1,39.07006,32281,30.53952,52.76400,296.24911,31.83005,32288,37.21945,86.19700,295.64932,8.30078, 583.00781, -807.12885, -3.33588, 1.34351, -1.38931, -5.10000, 46.95000, -3.90000, 40.96885, 0,0.00000,0.00000,0.00000,0,20, 
824981, 1,39.08428,32282,30.50604,52.79700,296.16193,31.82817,32287,37.22528,86.64600,295.64932,7.32422, 585.44922, -815.91791, 0.80153, -0.80916, 0.27481, -4.05000, 46.50000, -3.15000, 40.96885, 0,0.00000,0.00000,0.00000,0,20, 
826729, 0,39.09881,32281,30.50161,52.63100,296.24911,31.82723,32288,37.15284,86.37600,295.56210,-3.90625, 582.51953, -810.54681, 0.49618, 0.85496, 0.86260, -3.30000, 46.50000, -3.90000, 41.01677, 0,0.00000,0.00000,0.00000,0,20, 
828475, 0,39.11303,32281,30.46813,52.73100,296.33365,31.82629,32289,37.07440,86.37600,295.64932,17.57813, 587.40234, -803.22260, -3.57252, 2.35878, -1.06870, -2.70000, 45.90000, -4.05000, 41.16054, 0,0.00000,0.00000,0.00000,0,20, 
830223, 0,39.12978,32281,30.44069,52.63100,296.24911,31.82566,32289,36.98399,86.91800,295.64932,3.41797, 578.12500, -810.54681, -2.03053, 3.46565, -0.48855, -4.35000, 47.25000, -3.15000, 41.16054, 0,0.00000,0.00000,0.00000,0,20, 
831969, 0,39.14495,32281,30.43052,52.66400,296.24911,31.82284,32288,36.91747,87.10000,295.56210,15.62500, 579.58984, -817.87103, 0.41985, 0.24427, -1.10687, -3.75000, 47.55000, -4.80000, 41.16054, 0,0.00000,0.00000,0.00000,0,20, 
833717, 0,39.15885,32281,30.39703,52.66400,296.16193,31.82252,32289,36.94754,86.01800,295.64932,1.95312, 582.51953, -816.89447, 1.34351, 2.06870, -1.59542, -4.05000, 45.75000, -4.35000, 41.01677, 0,0.00000,0.00000,0.00000,0,20, 
835463, 0,39.17244,32282,30.37511,52.49800,296.16193,31.82158,32288,36.94744,85.57500,295.56210,-9.76563, 586.91406, -818.35931, -2.00000, 2.22137, -2.93130, -2.55000, 47.70000, -3.90000, 41.01677, 0,0.00000,0.00000,0.00000,0,20, 
837208, 0,39.18792,32282,30.34757,52.89800,296.16193,31.81782,32289,36.92898,87.19100,295.56210,1.46484, 599.12109, -809.57025, 0.03053, 1.22901, 1.55725, -4.05000, 46.95000, -3.15000, 40.82508, 0,0.00000,0.00000,0.00000,0,20, 
838955, 0,39.20119,32281,30.32562,52.73100,296.16193,31.81625,32289,36.85660,87.65100,295.56210,-0.48828, 580.56641, -806.64056, -1.16031, 0.67939, -0.90840, -3.45000, 44.85000, -2.70000, 41.01677, 0,0.00000,0.00000,0.00000,0,20, 
840700, 1,39.21510,32282,30.29214,52.76400,296.16193,31.81374,32289,36.80821,88.20900,295.64932,5.85937, 575.19531, -806.15228, 1.46565, 0.86260, 2.82443, -3.75000, 45.15000, -3.45000, 41.25639, 0,0.00000,0.00000,0.00000,0,20, 
842446, 2,39.22837,32282,30.27600,52.69700,296.07736,31.81280,32288,36.76602,88.20900,295.56210,15.13672, 576.17188, -824.21869, 1.53435, 0.45802, 2.48092, -4.80000, 46.50000, -2.10000, 41.20847, 0,0.00000,0.00000,0.00000,0,20, 
844188, 0,39.24196,32283,30.25989,52.76400,296.16193,31.81437,32289,36.80227,87.65100,295.47757,14.64844, 585.93750, -812.98822, -3.66412, 3.20611, -3.19847, -3.00000, 45.90000, -3.00000, 41.20847, 0,0.00000,0.00000,0.00000,0,20, 
845937, 0,39.25491,32282,30.23792,52.66400,296.16193,31.81625,32289,36.92279,86.01800,295.56210,-1.46484, 582.51953, -826.66010, 0.96947, -1.06870, 0.58015, -3.75000, 47.10000, -3.45000, 41.25639, 0,0.00000,0.00000,0.00000,0,20, 
847683, 1,39.26755,32281,30.20434,52.56500,296.24911,31.81562,32288,36.98895,85.84100,295.56210,1.46484, 576.66016, -810.05853, -1.97710, 2.86260, -3.76336, -2.85000, 47.25000, -3.60000, 41.25639, 0,0.00000,0.00000,0.00000,0,20, 
849436, 1,39.28209,32282,30.18252,52.53100,296.24911,31.81405,32289,37.02491,85.22400,295.56210,12.20703, 586.91406, -808.10541, 0.31298, 0.25954, -2.67939, -3.45000, 47.85000, -4.05000, 41.20847, 0,0.00000,0.00000,0.00000,0,20, 
851181, 1,39.29536,32281,30.16059,52.63100,296.16193,31.81500,32290,37.00093,85.40000,295.47757,9.27734, 581.54297, -798.33978, -1.81679, 1.87786, -1.51145, -2.55000, 47.70000, -4.65000, 40.68131, 0,0.00000,0.00000,0.00000,0,20, 
852927, 0,39.30926,32282,30.13293,52.59800,296.07736,31.81531,32288,37.00698,85.92900,295.56210,17.57813, 582.03125, -816.89447, -2.38168, 1.36641, -0.41985, -4.20000, 47.10000, -4.05000, 41.20847, 0,0.00000,0.00000,0.00000,0,20, 
854675, 1,39.32285,32283,30.11683,52.76400,296.16193,31.81437,32289,36.97677,85.84100,295.64932,-3.90625, 583.49609, -808.10541, -0.77863, -1.15267, -0.60305, -2.10000, 46.50000, -4.35000, 41.06470, 0,0.00000,0.00000,0.00000,0,20, 
856421, 0,39.33644,32283,30.10073,52.43200,296.07736,31.81374,32288,36.89846,86.91800,295.56210,11.23047, 580.07813, -809.57025, -1.90840, 3.07634, -2.06107, -3.45000, 45.90000, -4.05000, 41.16054, 0,0.00000,0.00000,0.00000,0,20, 
858169, 0,39.35034,32283,30.06149,52.36700,296.16193,31.80935,32288,36.78370,87.92900,295.56210,13.67187, 578.61328, -801.75775, 0.74046, 2.06107, -1.16031, -5.55000, 46.95000, -3.90000, 41.01677, 0,0.00000,0.00000,0.00000,0,20, 
859915, 0,39.36393,32282,30.04539,52.59800,296.24911,31.80873,32288,36.68744,87.37400,295.56210,10.25391, 590.33203, -810.05853, -2.32824, 2.38168, -0.44275, -3.60000, 47.70000, -4.65000, 41.35223, 0,0.00000,0.00000,0.00000,0,20, 
861664, 0,39.37688,32282,30.01765,52.49800,296.24911,31.80935,32289,36.74762,86.19700,295.56210,11.23047, 583.98438, -812.49994, 0.69466, -1.27481, -0.64885, -4.35000, 48.00000, -2.85000, 40.96885, 0,0.00000,0.00000,0.00000,0,20, 
863407, 0,39.38826,32282,30.00714,52.56500,296.24911,31.81029,32289,36.86800,85.22400,295.47757,3.90625, 583.98438, -810.05853, -0.27481, 0.77863, -1.97710, -3.45000, 45.60000, -3.45000, 41.35223, 0,0.00000,0.00000,0.00000,0,20, 
865154, 0,39.39932,32282,29.97923,52.69700,296.24911,31.80747,32289,36.92788,85.13700,295.56210,5.85937, 582.03125, -807.61713, -2.16031, 1.87786, -3.73282, -3.00000, 45.90000, -5.55000, 41.20847, 0,0.00000,0.00000,0.00000,0,20, 
866899, 0,39.41133,32281,29.95142,52.49800,296.24911,31.80276,32288,36.92739,86.37600,295.56210,14.64844, 588.86719, -808.59369, 0.88550, -0.03817, -0.83206, -4.05000, 46.50000, -4.35000, 41.25639, 0,0.00000,0.00000,0.00000,0,20, 
868646, 0,39.42397,32281,29.92945,52.36700,296.24911,31.80026,32288,36.86694,87.10000,295.47757,-5.37109, 592.28516, -813.47650, -2.29771, 2.01527, -2.65649, -3.60000, 45.75000, -4.65000, 41.25639, 0,0.00000,0.00000,0.00000,0,20, 
870392, 1,39.43724,32282,29.91912,52.43200,296.16193,31.79649,32289,36.80640,88.20900,295.56210,0.48828, 583.98438, -811.52338, -2.61069, 3.22901, -1.35115, -3.00000, 47.55000, -4.05000, 41.20847, 0,0.00000,0.00000,0.00000,0,20, 
872138, 1,39.44925,32282,29.90288,52.39900,296.16193,31.79492,32288,36.72206,87.55800,295.56210,9.27734, 579.10156, -804.19916, 0.08397, -0.41221, 3.63359, -4.80000, 46.95000, -2.40000, 41.35223, 0,0.00000,0.00000,0.00000,0,20, 
873891, 0,39.45841,32282,29.88638,52.30100,296.33365,31.79963,32289,36.78868,86.19700,295.47757,4.39453, 583.49609, -812.01166, 1.06870, 1.12214, 1.32061, -3.75000, 48.60000, -3.75000, 41.06470, 0,0.00000,0.00000,0.00000,0,20, 
875636, 0,39.47137,32281,29.84710,52.39900,296.24911,31.80371,32289,36.93952,84.61700,295.47757,5.85937, 598.14453, -816.40619, -2.32824, 2.48855, 0.03817, -4.20000, 46.65000, -4.80000, 41.20847, 0,0.00000,0.00000,0.00000,0,20, 
877385, 0,39.48559,32281,29.83107,52.49800,296.33365,31.80214,32289,37.02365,85.13700,295.56210,9.76563, 589.35547, -821.28900, -2.54198, 2.37405, 0.42748, -5.25000, 46.65000, -3.75000, 41.40015, 0,0.00000,0.00000,0.00000,0,20, 
879130, 0,39.49886,32281,29.80340,52.36700,296.24911,31.80276,32289,37.02372,84.87600,295.64932,0.97656, 581.05469, -814.45306, 1.71756, 0.90076, -1.07634, -3.00000, 45.90000, -3.45000, 41.35223, 0,0.00000,0.00000,0.00000,0,20, 
880879, 0,39.51087,32282,29.77560,52.20300,296.24911,31.80590,32288,37.10838,83.93400,295.64932,7.32422, 578.61328, -819.33588, -3.72519, 3.97710, -2.11450, -3.30000, 45.75000, -3.90000, 41.25639, 0,0.00000,0.00000,0.00000,0,20, 
882624, 1,39.52319,32282,29.77096,52.26800,296.16193,31.81060,32288,37.23547,82.51700,295.56210,16.11328, 586.42578, -803.22260, -1.78626, 3.51908, -1.76336, -4.50000, 45.60000, -5.85000, 41.25639, 0,0.00000,0.00000,0.00000,0,20, 
884371, 0,39.53583,32282,29.75480,52.13800,296.16193,31.81500,32288,37.36866,81.38600,295.56210,8.30078, 595.21484, -812.49994, 1.38168, -1.53435, -1.41985, -3.75000, 45.90000, -2.70000, 41.16054, 0,0.00000,0.00000,0.00000,0,20, 
886117, 0,39.54910,32283,29.73868,52.46500,296.07736,31.81719,32289,37.47153,80.99000,295.56210,5.37109, 575.68359, -826.17181, -0.27481, -0.65649, 1.82443, -4.05000, 46.95000, -2.10000, 41.06470, 0,0.00000,0.00000,0.00000,0,20, 
887862, 0,39.56079,32283,29.71665,52.36700,296.07736,31.82127,32289,37.53841,80.75400,295.56210,14.16016, 573.73047, -814.94135, -1.45038, 3.93130, -0.03053, -2.85000, 45.75000, -3.90000, 41.35223, 0,0.00000,0.00000,0.00000,0,20, 
889611, 1,39.57059,32283,29.68289,52.20300,296.24911,31.82441,32290,37.61127,79.74600,295.56210,-7.32422, 583.00781, -824.70697, -3.70229, 3.47328, -2.84733, -1.95000, 48.60000, -3.00000, 41.59185, 0,0.00000,0.00000,0.00000,0,20, 
891357, 0,39.57944,32282,29.66059,52.53100,296.16193,31.82974,32289,37.69649,79.97700,295.56210,-257.81250, 857.42181, 487.79294, -66.70229, 25.21374, -73.09924, 9.00000, 26.10000, 53.10000, 41.40015, 0,0.00000,0.00000,0.00000,0,20, 
893106, 5,39.58923,32282,29.64994,52.23500,296.16193,31.83319,32289,37.76340,79.67000,295.64932,-65.91797, 524.41406, 633.30078, 43.68702, 32.38931, -11.48855, 1.20000, 4.35000, 60.45000, 41.25639, 0,0.00000,0.00000,0.00000,0,20, 
894850, 1,39.59776,32279,29.62763,52.30100,296.58997,31.83570,32286,37.81209,79.74600,295.99017,-117.18749, 416.99216, 956.54291, -37.49618, -1.15267, 3.83969, 0.30000, 1.80000, 60.90000, 41.40015, 0,0.00000,0.00000,0.00000,0,20, 
896601, 4,39.60408,32275,29.60511,52.36700,296.84625,31.83350,32283,37.84817,79.90000,296.07736,-130.85938, 95.70312, 1018.06630, -10.27481, -17.16794, 3.00763, 0.60000, -19.80000, 58.80000, 41.25639, 0,0.00000,0.00000,0.00000,0,20, 
898343, 16,39.61040,32273,29.59414,52.23500,297.01801,31.83005,32282,37.84779,80.99000,296.16193,-124.02343, 138.18359, 1006.34760, -2.03053, 0.26718, -4.20611, 0.45000, -16.50000, 57.45000, 41.20847, 0,0.00000,0.00000,0.00000,0,20, 
900092, 13,39.61325,32272,29.57708,52.36700,297.10519,31.82849,32280,37.84156,80.99000,296.33365,-67.87109, 149.90234, 1016.60150, -0.41985, 2.19084, 2.31298, 0.90000, -15.00000, 58.95000, 41.20847, 0,0.00000,0.00000,0.00000,0,20, 
901835, 13,39.61672,32271,29.54854,52.46500,297.10519,31.82786,32280,37.83545,81.62600,296.33365,-50.29296, 128.90625, 1019.04290, -0.51908, -5.29771, -1.61069, -0.45000, -17.25000, 57.45000, 41.35223, 0,0.00000,0.00000,0.00000,0,20, 
903584, 11,39.61893,32271,29.54297,52.46500,297.18976,31.82754,32280,37.79306,81.54600,296.33365,-83.00780, 115.72265, 1007.32420, 4.85496, 0.29008, 4.73282, -0.30000, -16.35000, 58.05000, 41.25639, 0,0.00000,0.00000,0.00000,0,20, 
905328, 12,39.61893,32270,29.52565,52.30100,297.18976,31.82629,32280,37.75056,81.54600,296.41821,-91.79687, 129.39453, 1033.69140, -5.93893, 4.35115, -3.45038, -0.15000, -16.20000, 58.20000, 41.25639, 0,0.00000,0.00000,0.00000,0,20, 
