millis, UV [0-1023], BME_1_Temp, BME_1_Pres, BME_1_Hum, BME_1_Res, BME_1_Alt, BME_2_Temp, BME_2_Pres, BME_2_Hum, BME_2_Res, BME_2_Alt, Scaled. Acc.X, Scaled. Acc.Y, Scaled. Acc.Z, Gyr.X, Gyr.Y, Gyr.Z, Mag.X, Mag.Y, Mag.Z, Tmp, Radiation_count, counts_per_minute, uSvh, uSvhError, noiseCount, Ozone (PPB.), 
2126, 0,28.71432,27602,27.19821,91.05700,704.89526,27.87056,27608,29.53098,113.55800,704.45135,5.37109, -3.90625, 1022.94920, -2.51145, 3.16031, -3.44275, 23.85000, -20.70000, 61.50000, 33.10950, 0,0.00000,0.00000,0.00000,0,20, 
3867, 0,28.55161,27604,26.90763,95.43100,704.89526,27.72315,27609,29.21715,118.83400,704.45135,-8.78906, 10.74219, 1039.06250, 1.85496, 1.64885, 0.11450, 24.15000, -21.90000, 60.00000, 33.30119, 0,0.00000,0.00000,0.00000,0,20, 
5607, 1,28.43502,27604,26.68789,98.80100,704.89526,27.60679,27609,28.95779,124.53100,704.36151,-14.16016, 8.30078, 1035.15630, -0.75573, 4.53435, 0.48092, 24.90000, -19.95000, 60.45000, 33.49289, 0,0.00000,0.00000,0.00000,0,20, 
7347, 0,28.36551,27604,26.46123,101.32000,704.80804,27.53747,27610,28.71990,128.57600,704.36151,-1.46484, 6.83594, 1050.78130, 1.83969, 0.72519, -0.46565, 26.25000, -20.10000, 59.55000, 33.44496, 0,0.00000,0.00000,0.00000,0,20, 
9089, 1,28.32507,27604,26.27037,102.94500,704.89526,27.49858,27609,28.50758,129.78101,704.45135,-17.08984, -15.62500, 1022.94920, -1.87023, 4.24427, -0.49618, 24.90000, -21.15000, 60.45000, 33.15742, 0,0.00000,0.00000,0.00000,0,20, 
10826, 0,28.30200,27604,26.11971,104.68900,704.80804,27.47819,27609,28.33097,131.94400,704.45135,-24.41406, -0.97656, 1020.99600, -0.33588, 2.13740, 0.88550, 26.25000, -19.80000, 60.30000, 33.34912, 1,5.75650,0.10855,0.10855,0,20, 
12567, 0,28.29094,27604,26.00319,105.61700,704.80804,27.46972,27610,28.20626,132.25900,704.45135,-6.83594, 7.81250, 1022.94920, -1.02290, 2.16031, -0.17557, 24.15000, -21.45000, 60.30000, 33.34912, 1,4.93299,0.09302,0.09302,0,20, 
14307, 0,28.28526,27604,25.91470,106.08700,704.89526,27.46596,27609,28.12710,133.42599,704.36151,-10.74219, 8.78906, 1018.55460, 1.34351, 1.04580, -0.19084, 25.05000, -21.30000, 59.55000, 33.34912, 1,4.31468,0.08136,0.08136,0,20, 
16050, 0,28.28147,27604,25.84290,106.83400,704.89526,27.46376,27610,28.03123,134.50600,704.36151,-11.23047, -0.97656, 1027.34380, -1.39695, 5.08397, -1.45802, 24.90000, -19.95000, 59.70000, 33.34912, 1,3.83509,0.07232,0.07232,0,20, 
17790, 0,28.28115,27603,25.78240,107.93900,704.98511,27.46220,27609,27.94110,135.71400,704.45135,2.92969, 7.32422, 1024.41410, 2.83969, -0.52672, 0.76336, 24.90000, -20.40000, 59.25000, 33.25327, 1,3.45066,0.06507,0.06507,0,20, 
19532, 0,28.28147,27603,25.72198,108.21900,704.89526,27.46345,27609,27.89060,135.60300,704.45135,-4.88281, 5.85937, 1035.64450, 1.25191, 1.82443, 3.93893, 27.15000, -19.65000, 61.20000, 33.10950, 2,6.27353,0.11830,0.08365,0,20, 
21273, 0,28.27957,27603,25.68337,107.24600,704.98511,27.46690,27609,27.84030,135.05200,704.36151,-20.01953, -0.48828, 1026.85550, -1.06870, 4.09160, -1.39695, 24.90000, -20.40000, 59.25000, 33.58873, 4,11.50086,0.21687,0.10843,0,20, 
23016, 0,28.27831,27603,25.66131,108.00900,704.98511,27.47035,27610,27.84058,135.16200,704.45135,-9.76563, 3.41797, 1030.76170, -1.64122, 2.77099, -2.52672, 24.60000, -20.10000, 61.35000, 33.25327, 4,10.61430,0.20015,0.10007,0,20, 
24756, 0,28.27799,27603,25.63932,108.57100,704.89526,27.47255,27609,27.83514,135.27200,704.45135,-3.41797, 6.34766, 1036.13280, -0.54198, 3.44275, -2.13740, 24.75000, -19.35000, 60.60000, 33.25327, 4,9.85586,0.18585,0.09292,0,20, 
26496, 0,28.27957,27603,25.66141,108.14900,704.80804,27.47474,27608,27.85217,136.38200,704.45135,-28.32031, 6.34766, 1020.01950, -2.22137, 5.24427, -1.68702, 25.35000, -20.70000, 60.45000, 33.44496, 4,9.19857,0.17345,0.08673,0,20, 
28236, 0,28.28336,27604,25.70564,108.29000,704.80804,27.47788,27609,27.89177,135.05200,704.54120,-11.71875, 14.16016, 1017.57810, 0.08397, 1.44275, 1.25954, 24.75000, -21.30000, 60.60000, 33.49289, 4,8.62317,0.16260,0.08130,0,20, 
29976, 0,28.28526,27605,25.74974,107.66100,704.80804,27.47976,27608,27.91442,135.27200,704.54120,-12.69531, 6.83594, 1013.67180, 1.61069, -1.18321, 2.30534, 25.50000, -20.10000, 59.85000, 33.25327, 4,8.11496,0.15302,0.07651,0,20, 
31719, 0,28.28652,27605,25.78281,107.66100,704.89526,27.48384,27609,27.92599,136.38200,704.45135,-9.76563, -1.46484, 1022.46090, 0.87023, 0.13740, 1.70992, 23.40000, -19.65000, 60.75000, 33.25327, 4,7.66406,0.14452,0.07226,0,20, 
33459, 0,28.28968,27603,25.80504,107.38400,704.98511,27.48478,27609,27.96543,135.05200,704.45135,-13.18359, -5.37109, 1026.36720, -1.85496, 3.15267, -2.66412, 24.15000, -20.70000, 58.95000, 33.25327, 4,7.26019,0.13690,0.06845,0,20, 
35202, 0,28.29316,27603,25.82180,107.59100,704.98511,27.48760,27609,27.98254,136.38200,704.45135,-0.97656, 2.92969, 1034.66800, -0.46565, 2.75573, -3.80153, 25.65000, -19.65000, 60.75000, 33.44496, 4,6.89715,0.13006,0.06503,0,20, 
36942, 0,28.29663,27603,25.86606,108.57100,704.89526,27.48917,27610,27.99954,136.60600,704.45135,-2.44141, 11.71875, 1033.20310, 2.32061, 0.24427, 2.43511, 25.05000, -19.35000, 60.30000, 33.63665, 4,6.56814,0.12385,0.06193,0,20, 
38685, 0,28.30042,27603,25.86635,108.36000,704.89526,27.49011,27609,28.01087,136.15800,704.45135,-12.20703, -3.41797, 1035.15630, 2.54962, -0.09160, 0.36641, 24.90000, -19.95000, 60.00000, 33.34912, 4,6.26959,0.11822,0.05911,0,20, 
40425, 0,28.29979,27603,25.86080,108.85500,704.89526,27.48760,27609,27.99942,136.71800,704.45135,-14.16016, 4.39453, 1029.78520, 1.58015, 0.13740, -1.10687, 24.30000, -19.05000, 57.75000, 33.25327, 4,5.99700,0.11308,0.05654,0,20, 
42165, 0,28.29884,27604,25.84423,109.35400,704.89526,27.47945,27609,27.98187,138.19600,704.54120,-7.81250, -12.20703, 1039.06250, -0.24427, 0.91603, -0.67176, 25.50000, -20.55000, 60.30000, 33.30119, 4,5.74685,0.10837,0.05418,0,20, 
43908, 0,28.29758,27603,25.80015,110.73300,704.89526,27.46878,27609,27.90790,139.35400,704.45135,-19.53125, 6.34766, 1035.64450, -2.43511, 1.46565, -0.18321, 26.10000, -20.70000, 59.25000, 33.30119, 4,5.51686,0.10403,0.05201,0,20, 
45647, 0,28.29442,27603,25.71747,110.73300,704.98511,27.46282,27609,27.81187,139.12100,704.54120,-6.34766, -8.78906, 1038.57420, -1.31298, 3.22901, -1.17557, 25.35000, -19.95000, 59.70000, 33.25327, 4,5.30434,0.10002,0.05001,0,20, 
47390, 0,28.29189,27603,25.65685,111.32400,704.98511,27.46157,27609,27.76122,140.29500,704.54120,-12.69531, 5.37109, 1029.78520, 3.44275, -0.94656, 0.88550, 24.90000, -19.95000, 60.75000, 33.10950, 4,5.10790,0.09632,0.04816,0,20, 
49131, 0,28.29442,27603,25.62410,111.02700,704.89526,27.46251,27608,27.71637,141.48900,704.54120,-11.71875, 6.34766, 1031.25000, -0.03817, 0.68702, -1.47328, 23.70000, -20.10000, 60.60000, 33.30119, 4,4.92520,0.09287,0.04644,0,20, 
50874, 2,28.29473,27603,25.59119,110.95400,704.98511,27.46063,27609,27.68816,139.82300,704.45135,-12.69531, 9.76563, 1038.08590, 0.18321, 0.12214, 1.23664, 26.10000, -18.90000, 61.20000, 33.34912, 4,4.75539,0.08967,0.04484,0,20, 
52614, 0,28.29094,27603,25.57992,111.32400,704.98511,27.45247,27608,27.66505,140.53200,704.54120,-12.69531, -1.46484, 1044.43360, -1.31298, 2.15267, -1.57252, 24.15000, -21.90000, 59.70000, 33.10950, 4,4.59673,0.08668,0.04334,0,20, 
54356, 0,28.28557,27602,25.57403,111.92100,704.98511,27.44808,27608,27.62542,140.88901,704.45135,-12.69531, 0.48828, 1041.01560, 2.12214, -0.79389, -0.02290, 24.75000, -21.30000, 59.85000, 33.30119, 4,4.44848,0.08388,0.04194,0,20, 
56096, 0,28.28715,27602,25.53574,112.07100,705.07495,27.44620,27608,27.60282,141.12900,704.45135,-22.46094, -13.18359, 1029.29690, -1.46565, 2.32824, -4.40458, 24.15000, -19.65000, 60.75000, 33.34912, 4,4.30942,0.08126,0.04063,0,20, 
57839, 0,28.28968,27601,25.50850,111.54700,705.07495,27.43962,27608,27.58547,140.77000,704.54120,-10.25391, 4.88281, 1028.80860, -2.80153, 3.10687, -0.12214, 25.35000, -20.70000, 60.45000, 33.10950, 4,4.17864,0.07879,0.03940,0,20, 
59579, 0,28.28779,27601,25.46996,112.75300,705.16479,27.43021,27608,27.55106,142.21500,704.54120,-4.39453, 8.30078, 1029.29690, -2.48092, 4.13740, -1.65649, 27.15000, -21.90000, 58.65000, 33.10950, 4,4.05577,0.07648,0.03824,0,20, 
61320, 1,28.28747,27602,25.42059,112.75300,705.07495,27.42425,27608,27.52255,141.36900,704.45135,-17.57813, -0.97656, 1023.43740, 1.12977, 1.83206, 0.37405, 25.65000, -20.70000, 59.70000, 33.25327, 4,3.93992,0.07429,0.03715,0,20, 
63060, 0,28.28557,27602,25.39304,112.98200,704.98511,27.42080,27608,27.50545,140.65100,704.45135,-8.30078, -1.46484, 1033.69140, -2.07634, 1.35878, -1.28244, 24.90000, -19.20000, 59.70000, 33.44496, 4,3.83050,0.07223,0.03611,0,20, 
64800, 0,28.28494,27602,25.37655,111.99600,704.98511,27.41766,27609,27.53323,141.60899,704.45135,-19.53125, 0.00000, 1021.48430, -0.67176, 4.10687, -2.41985, 25.50000, -19.80000, 59.85000, 33.34912, 4,3.72682,0.07028,0.03514,0,20, 
66543, 0,28.27925,27601,25.38160,111.54700,705.07495,27.41390,27609,27.52732,141.97200,704.45135,0.97656, -2.92969, 1030.76170, -0.34351, 1.04580, 0.45802, 24.60000, -21.15000, 59.70000, 33.06158, 4,3.62878,0.06843,0.03421,0,20, 
68283, 0,28.27957,27602,25.41999,110.73300,704.98511,27.41609,27609,27.53311,141.00900,704.45135,-7.81250, 4.39453, 1030.27340, -1.03053, 1.71756, 2.91603, 25.35000, -20.70000, 58.95000, 33.49289, 4,3.53560,0.06667,0.03333,0,20, 
70026, 0,28.28336,27603,25.45866,111.69600,704.89526,27.41860,27609,27.55573,141.12900,704.45135,-8.78906, 1.46484, 1028.80860, -1.25954, 4.46565, -0.25191, 24.75000, -20.55000, 59.55000, 33.34912, 4,3.44729,0.06500,0.03250,0,20, 
71766, 0,28.28936,27603,25.48105,110.88000,704.89526,27.42236,27608,27.57286,140.77000,704.45135,0.00000, 1.95312, 1032.22660, 1.22901, 1.16031, -1.51145, 24.15000, -20.70000, 60.00000, 33.25327, 4,3.36309,0.06342,0.03171,0,20, 
73508, 0,28.29600,27603,25.48704,110.88000,704.89526,27.42393,27608,27.58981,141.24800,704.54120,-9.27734, -5.37109, 1027.34380, -0.00763, 0.59542, -0.72519, 24.90000, -20.40000, 61.20000, 33.44496, 4,3.28304,0.06191,0.03095,0,20, 
75248, 0,28.30042,27603,25.51480,111.99600,704.98511,27.42331,27608,27.60098,140.88901,704.54120,-8.30078, 11.71875, 1041.50390, -2.29771, 1.81679, -0.77863, 26.10000, -21.15000, 61.50000, 33.15742, 6,4.81000,0.09070,0.03703,0,20, 
76991, 0,28.30326,27601,25.49856,112.22200,705.07495,27.41954,27608,27.59507,141.73000,704.45135,-15.62500, 5.85937, 1027.34380, -1.83969, 4.35115, -4.58015, 24.75000, -19.80000, 59.85000, 33.58873, 6,4.70066,0.08864,0.03619,0,20, 
78729, 0,28.30516,27602,25.49321,111.84600,704.98511,27.41829,27608,27.59496,141.48900,704.45135,-16.11328, 3.41797, 1039.06250, -2.77863, 2.88550, -1.61832, 25.35000, -18.90000, 60.75000, 33.30119, 6,4.59629,0.08667,0.03538,0,20, 
80470, 1,28.30200,27602,25.46555,112.22200,704.98511,27.41860,27608,27.60060,141.48900,704.45135,2.92969, 1.95312, 1041.01560, -1.41985, 1.48855, -1.80153, 24.75000, -19.80000, 60.60000, 33.15742, 6,4.49623,0.08478,0.03461,0,20, 
82212, 0,28.29632,27603,25.45415,111.69600,704.98511,27.41923,27609,27.59504,140.77000,704.45135,-11.23047, -4.39453, 1030.76170, 1.03053, 0.03817, 0.38931, 25.35000, -20.70000, 61.20000, 33.25327, 6,4.40060,0.08298,0.03388,0,20, 
83952, 0,28.29473,27604,25.46500,111.77100,704.98511,27.41703,27609,27.63413,140.53200,704.45135,-7.81250, 0.00000, 1031.25000, -1.18321, 3.80153, -1.35878, 24.90000, -19.65000, 59.70000, 33.34912, 6,4.30880,0.08125,0.03317,0,20, 
85695, 1,28.29252,27603,25.49775,111.69600,704.98511,27.41484,27609,27.66762,139.70500,704.54120,-11.71875, 5.85937, 1031.25000, -1.19847, 3.87786, -0.54962, 24.90000, -21.45000, 60.45000, 33.10950, 6,4.22089,0.07959,0.03249,0,20, 
87435, 0,28.29410,27602,25.55272,110.22100,704.98511,27.41578,27608,27.71260,139.47099,704.54120,-17.08984, 10.25391, 1033.69140, -1.50382, 3.23664, -2.83969, 25.35000, -19.95000, 58.95000, 33.25327, 6,4.13641,0.07800,0.03184,0,20, 
89178, 0,28.29758,27603,25.65729,108.92600,704.98511,27.41860,27608,27.82514,138.31100,704.45135,-7.32422, -4.88281, 1037.59770, -0.90840, 1.33588, -1.26718, 25.65000, -21.45000, 59.70000, 33.10950, 6,4.05533,0.07647,0.03122,0,20, 
90917, 0,28.30105,27603,25.79491,107.45300,704.98511,27.41860,27608,27.93755,136.60600,704.54120,-10.74219, 17.57813, 1032.22660, 1.52672, 0.73282, 0.32061, 25.35000, -20.40000, 58.95000, 33.34912, 6,3.97724,0.07500,0.03062,0,20, 
92660, 0,28.30390,27602,25.92163,108.07900,704.98511,27.41891,27609,28.07822,135.93600,704.45135,-13.18359, -38.57422, 1041.99220, -0.12977, -0.51145, -0.41221, 24.15000, -19.65000, 58.95000, 33.34912, 7,4.55265,0.08585,0.03245,0,20, 
94398, 0,28.30548,27602,26.03185,108.71300,704.98511,27.41515,27609,28.16236,137.62399,704.45135,-2.44141, 14.16016, 1021.48430, -0.42748, 3.99237, -0.04580, 24.30000, -21.75000, 59.55000, 33.25327, 7,4.46837,0.08426,0.03185,0,20, 
96139, 0,28.30011,27602,26.05346,110.51300,705.07495,27.40857,27608,28.16182,139.47099,704.54120,-5.85937, 8.30078, 1032.71480, -0.06107, -0.30534, 2.76336, 25.50000, -21.30000, 59.85000, 33.25327, 7,4.38729,0.08273,0.03127,0,20, 
97876, 0,28.29821,27601,25.98724,110.51300,705.16479,27.40135,27607,28.10493,140.65100,704.62842,-8.30078, 2.44141, 1041.99220, -1.38168, 2.80153, -1.47328, 24.30000, -21.30000, 59.85000, 33.10950, 7,4.30897,0.08125,0.03071,0,20, 
99616, 0,28.29410,27601,25.92088,111.39800,705.07495,27.39351,27607,28.00299,141.48900,704.54120,-15.13672, -9.76563, 1035.64450, 0.16031, 0.25191, -0.29008, 24.90000, -20.40000, 60.00000, 33.10950, 7,4.23327,0.07982,0.03017,0,20, 
101359, 0,28.28873,27602,25.82696,112.29800,704.98511,27.38849,27607,27.90137,142.45900,704.54120,-27.34375, 0.97656, 1030.76170, -0.58015, 0.94656, 2.03053, 25.50000, -20.55000, 59.10000, 33.25327, 7,4.16031,0.07845,0.02965,0,20, 
103099, 0,28.28431,27603,25.73318,113.05800,704.98511,27.38849,27608,27.81147,142.58099,704.45135,-12.20703, 1.95312, 1041.99220, -1.20611, 4.14504, -0.54962, 25.80000, -21.30000, 59.85000, 33.25327, 7,4.08970,0.07712,0.02915,0,20, 
104842, 0,28.28336,27603,25.63425,112.29800,704.98511,27.38881,27608,27.76094,142.45900,704.54120,-11.71875, -1.46484, 1031.25000, -2.59542, 4.29771, -2.04580, 25.05000, -20.55000, 60.60000, 33.10950, 7,4.02164,0.07583,0.02866,0,20, 
106579, 0,28.28052,27602,25.63403,112.07100,704.98511,27.38661,27608,27.75516,140.77000,704.54120,-17.08984, -7.81250, 1036.62110, 1.06107, 0.36641, -1.20611, 26.70000, -18.45000, 59.70000, 32.77404, 8,4.52071,0.08524,0.03014,0,20, 
108322, 0,28.27989,27602,25.62849,111.84600,704.98511,27.38630,27608,27.77759,140.65100,704.54120,-14.16016, 2.44141, 1034.66800, 1.27481, 0.63359, 1.10687, 27.75000, -16.80000, 60.60000, 32.96574, 8,4.44790,0.08387,0.02965,0,20, 
110061, 0,28.28020,27602,25.62851,110.80600,704.89526,27.38598,27608,27.77757,140.77000,704.54120,-7.32422, 6.34766, 1028.80860, -1.19084, 2.09924, -0.83206, 26.55000, -16.35000, 60.30000, 33.30119, 8,4.37721,0.08254,0.02918,0,20, 
111803, 0,28.28209,27603,25.64512,110.95400,704.98511,27.38253,27609,27.80537,141.00900,704.45135,-15.13672, -18.06641, 1038.08590, 0.53435, 1.91603, -0.18321, 26.70000, -15.75000, 60.75000, 33.25327, 8,4.30884,0.08125,0.02873,0,20, 
113544, 0,28.28336,27602,25.66170,111.32400,705.07495,27.37845,27608,27.82189,139.82300,704.54120,-13.18359, 0.00000, 1023.43740, -1.95420, 2.10687, -2.93130, 26.55000, -15.15000, 60.90000, 33.10950, 8,4.24261,0.08000,0.02828,0,20, 
115283, 3,28.27989,27603,25.66693,110.65900,704.98511,27.37532,27609,27.84410,140.29500,704.54120,-27.83203, -3.41797, 1031.25000, -1.46565, 3.74046, -3.12214, 25.50000, -14.10000, 60.60000, 33.06158, 8,4.17824,0.07879,0.02786,0,20, 
117026, 0,28.27673,27602,25.66119,111.39800,705.07495,27.36905,27608,27.83236,141.97200,704.45135,-10.74219, 9.27734, 1037.59770, 0.74809, 0.96947, 0.14504, 25.80000, -14.10000, 61.35000, 33.10950, 8,4.11593,0.07761,0.02744,0,20, 
118764, 3,28.27483,27600,25.64457,112.14700,705.16479,27.36434,27608,27.80951,142.09399,704.54120,-11.71875, 6.34766, 1028.32030, -0.57252, 0.01527, 1.32824, 27.15000, -14.70000, 61.20000, 33.25327, 8,4.05539,0.07647,0.02704,0,20, 
120505, 0,28.27451,27601,25.63906,112.29800,705.16479,27.36309,27608,27.79256,141.00900,704.54120,-3.41797, -1.46484, 1052.24610, -1.07634, 1.77099, -4.10687, 26.10000, -14.70000, 63.00000, 33.10950, 8,3.99664,0.07536,0.02664,0,20, 
122245, 0,28.27515,27601,25.61165,112.22200,705.16479,27.36403,27608,27.79825,140.29500,704.54120,-11.71875, -6.83594, 1035.15630, 0.03817, -0.08397, -1.32061, 26.40000, -14.70000, 60.75000, 33.15742, 8,3.93950,0.07429,0.02626,0,20, 
123988, 0,28.27388,27600,25.61705,111.77100,705.25195,27.36152,27607,27.82613,140.53200,704.54120,-29.29687, 4.88281, 1032.71480, 0.27481, 3.50382, -1.17557, 26.55000, -14.10000, 60.90000, 33.06158, 8,3.88403,0.07324,0.02589,0,20, 
125728, 1,28.27483,27601,25.63908,111.32400,705.16479,27.36215,27607,27.84866,140.41299,704.62842,-13.67187, 8.30078, 1026.85550, -1.86260, 5.70229, -2.87786, 28.50000, -14.85000, 62.10000, 33.25327, 8,3.82998,0.07222,0.02553,0,20, 
127471, 1,28.27515,27600,25.65009,112.07100,705.16479,27.36026,27607,27.85974,141.60899,704.62842,-23.92578, 0.00000, 1039.55080, -0.82443, 2.56489, 0.40458, 27.15000, -14.25000, 61.20000, 33.34912, 9,4.24973,0.08014,0.02671,0,20, 
129211, 0,28.27041,27600,25.60581,112.52500,705.25195,27.35713,27607,27.82578,141.24800,704.62842,-9.76563, 10.74219, 1033.69140, 1.25954, -0.03817, -0.63359, 25.05000, -15.15000, 61.35000, 32.91781, 10,4.65802,0.08783,0.02778,0,20, 
130954, 0,28.26567,27599,25.59447,112.67700,705.16479,27.35525,27607,27.78631,141.60899,704.54120,-10.74219, -4.88281, 1021.48430, 0.58779, 0.17557, 3.80153, 25.65000, -16.50000, 61.50000, 33.10950, 10,4.59598,0.08666,0.02741,0,20, 
132695, 0,28.25935,27601,25.56655,112.60100,705.07495,27.34897,27607,27.78019,141.97200,704.54120,-21.48437, -3.41797, 1035.64450, 0.30534, 0.57252, 1.60305, 27.00000, -14.85000, 60.30000, 33.15742, 10,4.53552,0.08552,0.02705,0,20, 
134434, 1,28.25240,27602,25.53859,112.44900,704.98511,27.34082,27607,27.74583,142.70300,704.54120,-6.34766, -1.95312, 1036.62110, 1.35878, 0.29008, 0.72519, 26.25000, -15.15000, 61.35000, 32.91781, 10,4.47654,0.08441,0.02669,0,20, 
136177, 0,28.24734,27603,25.53272,112.75300,704.89526,27.33329,27607,27.72277,142.21500,704.54120,-21.48437, -3.41797, 1027.34380, 2.16794, 0.11450, -0.43511, 26.10000, -15.45000, 60.75000, 33.10950, 10,4.41917,0.08333,0.02635,0,20, 
137917, 0,28.24544,27604,25.54355,112.37300,704.89526,27.32702,27607,27.72227,143.56599,704.62842,-20.50781, -5.85937, 1028.80860, -0.72519, -1.03053, -0.83206, 27.00000, -15.90000, 61.65000, 32.96574, 10,4.36322,0.08228,0.02602,0,20, 
139658, 0,28.24292,27603,25.53787,113.52000,704.98511,27.32106,27607,27.70495,143.69000,704.62842,-8.30078, -9.76563, 1016.60150, -2.11450, 2.43511, -2.11450, 26.10000, -13.50000, 60.75000, 33.15742, 10,4.30870,0.08125,0.02569,0,20, 
141398, 0,28.23913,27602,25.52661,113.44300,704.98511,27.31479,27607,27.68200,143.44200,704.54120,-15.62500, 4.39453, 1032.71480, -1.82443, 3.64122, -2.60305, 26.10000, -14.25000, 60.45000, 33.10950, 10,4.25544,0.08024,0.02538,0,20, 
143140, 0,28.23502,27602,25.47694,113.67500,705.07495,27.30758,27608,27.64775,144.06400,704.54120,-13.18359, -14.64844, 1024.41410, -2.13740, 3.96947, -1.12214, 26.55000, -15.15000, 62.40000, 33.25327, 10,4.20356,0.07926,0.02507,0,20, 
144881, 2,28.22997,27603,25.47107,114.21900,704.98511,27.29879,27607,27.63021,145.06900,704.54120,-12.69531, 17.08984, 1035.15630, -0.02290, -0.17557, -0.63359, 25.05000, -16.35000, 61.35000, 33.15742, 10,4.15285,0.07831,0.02476,0,20, 
146624, 0,28.22364,27603,25.44866,114.06300,704.98511,27.29126,27606,27.61839,144.31400,704.62842,-4.39453, -4.88281, 1035.64450, -0.03817, 1.29008, 1.14504, 25.65000, -15.00000, 61.20000, 32.96574, 10,4.10343,0.07738,0.02447,0,20, 
148364, 1,28.22080,27603,25.41007,113.90700,705.07495,27.28531,27607,27.58987,144.06400,704.71820,-19.53125, -4.39453, 1033.69140, 1.19084, -0.29008, -1.07634, 28.95000, -15.75000, 62.25000, 33.10950, 10,4.05510,0.07647,0.02418,0,20, 
150107, 2,28.21733,27602,25.42626,113.67500,704.98511,27.27684,27606,27.62284,143.44200,704.62842,-12.20703, -4.88281, 1027.83200, 1.22901, -0.13740, 1.18321, 27.30000, -15.15000, 59.85000, 33.15742, 10,4.00799,0.07558,0.02390,0,20, 
151846, 0,28.21038,27602,25.43670,113.52000,704.98511,27.26774,27606,27.62211,144.31400,704.62842,-9.27734, 10.25391, 1032.22660, 0.02290, 0.10687, 2.35115, 26.55000, -15.60000, 61.65000, 32.91781, 10,3.96191,0.07471,0.02362,0,20, 
153589, 0,28.20437,27603,25.44721,113.13500,705.07495,27.25896,27606,27.62140,143.93900,704.62842,-2.44141, 4.88281, 1013.67180, 1.69466, -0.13740, -0.60305, 30.15000, -12.00000, 64.05000, 33.10950, 10,3.91683,0.07386,0.02336,0,20, 
155329, 0,28.19774,27603,25.46315,112.90500,705.07495,27.25426,27607,27.64906,143.44200,704.54120,0.97656, -0.97656, 1026.36720, -2.67939, 2.72519, -2.14504, 28.05000, -11.70000, 64.05000, 33.25327, 10,3.87284,0.07303,0.02309,0,20, 
157070, 0,28.19205,27603,25.47917,112.98200,705.07495,27.25175,27607,27.66569,144.18900,704.62842,-9.76563, -2.92969, 1033.20310, -2.48092, 2.81679, -1.66412, 28.80000, -12.15000, 63.45000, 32.96574, 10,3.82975,0.07222,0.02284,0,20, 
158813, 0,28.18604,27601,25.49516,113.36600,705.07495,27.24673,27607,27.69895,143.69000,704.71820,-13.67187, -2.92969, 1029.29690, -1.12977, 3.45802, -0.85496, 28.65000, -12.30000, 64.05000, 33.10950, 10,3.78771,0.07142,0.02259,0,20, 
160552, 0,28.18194,27602,25.48937,113.05800,704.98511,27.24233,27607,27.70982,142.94901,704.62842,-6.83594, -0.48828, 1037.10940, 0.77863, -0.41221, -2.56489, 28.05000, -13.35000, 63.90000, 33.15742, 10,3.74649,0.07065,0.02234,0,20, 
162295, 1,28.17720,27602,25.49998,113.52000,704.89526,27.23356,27607,27.72034,143.69000,704.62842,-2.92969, -7.81250, 1025.87890, -1.62595, 3.22137, -1.93893, 27.75000, -12.90000, 64.95000, 32.96574, 10,3.70620,0.06989,0.02210,0,20, 
164035, 0,28.16930,27603,25.51584,112.14700,704.89526,27.22634,27607,27.74220,143.19501,704.54120,-2.92969, 8.78906, 1039.55080, 0.81679, 0.36641, -2.22901, 28.95000, -13.80000, 65.10001, 33.15742, 10,3.66674,0.06914,0.02186,0,20, 
165778, 2,28.15698,27603,25.53135,113.67500,704.98511,27.22038,27607,27.76417,142.21500,704.54120,-4.88281, 6.83594, 1033.20310, -2.33588, 1.51908, -0.80153, 28.65000, -13.05000, 64.35001, 33.10950, 10,3.62814,0.06841,0.02163,0,20, 
167518, 0,28.14655,27602,25.56897,112.67700,705.07495,27.21568,27608,27.79748,142.33701,704.54120,-8.78906, 0.48828, 1032.22660, 1.46565, 2.82443, -1.25954, 28.65000, -13.05000, 63.00000, 32.96574, 10,3.59032,0.06770,0.02141,0,20, 
169261, 0,28.13897,27602,25.60680,112.60100,705.07495,27.20878,27607,27.81938,142.94901,704.54120,-12.69531, 1.95312, 1013.18350, -0.22137, 0.35115, -0.67176, 28.05000, -13.35000, 62.10000, 32.82197, 10,3.55337,0.06700,0.02119,0,20, 
170999, 1,28.13265,27602,25.62827,113.36600,705.07495,27.20251,27607,27.84695,143.81400,704.62842,-13.18359, 2.92969, 1034.17970, -3.86260, 0.61069, -2.10687, 28.20000, -12.30000, 64.05000, 33.15742, 10,3.51712,0.06632,0.02097,0,20, 
172742, 0,28.12696,27602,25.65529,112.90500,705.07495,27.20125,27607,27.85808,142.70300,704.62842,-12.20703, 16.60156, 1041.01560, -1.54962, 2.96947, -0.88550, 27.75000, -12.90000, 64.65000, 33.10950, 10,3.48155,0.06565,0.02076,0,20, 
174482, 0,28.12254,27602,25.67691,111.47200,705.07495,27.19780,27607,27.89151,142.70300,704.62842,-19.04297, -4.88281, 1037.10940, -2.32061, 3.92366, -1.83206, 27.90000, -12.75000, 65.55000, 33.10950, 10,3.44673,0.06499,0.02055,0,20, 
176222, 1,28.12001,27602,25.75910,110.36700,704.98511,27.19623,27606,27.92510,141.36900,704.62842,-5.37109, 14.64844, 1033.69140, -1.96183, 1.94656, -1.32824, 27.90000, -13.80000, 64.35001, 33.10950, 10,3.41260,0.06435,0.02035,0,20, 
177965, 0,28.12128,27603,25.84713,110.07500,705.07495,27.19341,27607,28.00357,140.65100,704.62842,-12.69531, 7.32422, 1034.17970, -2.03817, 2.83206, -2.73282, 29.55000, -13.35000, 64.20000, 32.96574, 10,3.37914,0.06372,0.02015,0,20, 
179704, 0,28.12191,27601,25.92416,111.25000,705.16479,27.18651,27607,28.03112,142.33701,704.62842,-10.25391, -2.92969, 1037.10940, -2.83969, 3.29771, -2.37405, 29.25000, -13.35000, 63.45000, 33.06158, 10,3.34629,0.06310,0.01995,0,20, 
181447, 0,28.11906,27601,25.94045,112.98200,705.16479,27.17616,27606,28.03028,142.82600,704.71820,-0.97656, -2.44141, 1026.85550, -2.08397, 1.00000, -1.70992, 28.65000, -13.80000, 64.80000, 33.44496, 10,3.31413,0.06249,0.01976,0,20, 
183188, 0,28.11432,27601,25.90158,113.52000,705.16479,27.16675,27606,28.02952,143.19501,704.71820,-6.83594, 4.88281, 1039.55080, -0.55725, -1.05344, -1.86260, 28.05000, -14.40000, 64.20000, 33.15742, 10,3.28253,0.06190,0.01957,0,20, 
184931, 0,28.10769,27602,25.87358,112.90500,705.07495,27.15828,27606,28.02883,142.70300,704.71820,-8.30078, 6.83594, 1022.46090, 0.58015, 0.78626, -0.55725, 26.40000, -11.55000, 63.30000, 33.06158, 10,3.25159,0.06131,0.01939,0,20, 
186671, 0,28.10074,27602,25.85105,112.60100,705.07495,27.15765,27607,28.03440,143.44200,704.62842,-11.23047, -3.41797, 1032.22660, -2.23664, 3.41985, -0.51145, 29.55000, -14.10000, 64.65000, 33.06158, 10,3.22117,0.06074,0.01921,0,20, 
188413, 0,28.09790,27602,25.81786,113.28900,704.98511,27.16393,27607,28.04054,143.07201,704.54120,-11.23047, 6.34766, 1033.20310, 0.23664, 0.70992, 0.77099, 27.45000, -13.80000, 64.80000, 33.10950, 10,3.19135,0.06018,0.01903,0,20, 
190153, 0,28.09695,27602,25.81229,113.44300,705.07495,27.17020,27608,28.02979,142.70300,704.54120,-10.74219, -3.90625, 1034.17970, -0.22901, 3.93130, -0.95420, 27.15000, -12.00000, 65.55000, 33.10950, 10,3.16204,0.05963,0.01886,0,20, 
191896, 1,28.09631,27602,25.81774,112.60100,705.07495,27.17334,27608,28.03005,141.97200,704.54120,3.41797, -6.34766, 1040.03910, 0.01527, 4.32061, 0.74809, 24.90000, -18.90000, 60.45000, 32.77404, 10,3.13329,0.05908,0.01868,0,20, 
193636, 1,28.09663,27602,25.85074,112.07100,705.07495,27.17772,27607,28.05291,142.21500,704.54120,-20.99609, 1.95312, 1040.03910, -1.16031, 2.46565, -0.87023, 24.60000, -21.15000, 60.75000, 33.06158, 12,3.72609,0.07026,0.02028,0,20, 
195377, 1,28.09727,27602,25.87278,111.25000,705.07495,27.18118,27608,28.07569,140.77000,704.54120,-4.39453, -0.97656, 1025.87890, -2.88550, 3.51145, -1.48092, 26.40000, -20.40000, 61.80000, 32.96574, 12,3.69280,0.06963,0.02010,0,20, 
197118, 0,28.09979,27602,25.91147,111.69600,705.16479,27.18557,27607,28.10981,141.00900,704.54120,-11.23047, 2.92969, 1034.66800, -1.86260, 1.52672, -2.40458, 26.25000, -20.55000, 60.30000, 33.06158, 13,3.96515,0.07477,0.02074,0,20, 
198859, 0,28.10611,27601,25.94496,111.02700,705.16479,27.19027,27607,28.13833,140.65100,704.62842,-11.71875, -7.81250, 1033.69140, -2.59542, 2.82443, 0.99237, 24.90000, -20.70000, 59.70000, 33.10950, 13,3.93032,0.07411,0.02056,0,20, 
200602, 0,28.10990,27602,26.00027,110.44000,705.16479,27.19152,27606,28.18347,139.23700,704.71820,-8.30078, 2.44141, 1035.15630, -1.06107, -0.86260, 1.79389, 24.75000, -19.35000, 60.90000, 33.06158, 13,3.89620,0.07347,0.02038,0,20, 
202340, 0,28.11180,27602,26.06648,109.28200,705.16479,27.20439,27606,28.48325,130.59700,704.54120,-22.46094, -18.55469, 1022.94920, 1.93893, 3.41221, -0.67939, 24.90000, -21.90000, 60.45000, 33.10950, 13,3.86257,0.07283,0.02020,0,20, 
204083, 0,28.11591,27602,26.18247,108.21900,705.07495,27.24516,27611,30.18406,115.61100,704.00482,-3.90625, 13.18359, 1021.48430, 0.44275, 0.66412, 1.51145, 26.40000, -20.40000, 58.20000, 33.25327, 13,3.82961,0.07221,0.02003,0,20, 
205820, 0,28.12317,27602,26.29882,108.29000,705.16479,27.30256,27615,33.20745,107.39600,703.73798,-7.81250, 9.76563, 1029.29690, 1.37405, -1.52672, -0.04580, 24.30000, -20.55000, 60.60000, 32.91781, 13,3.79715,0.07160,0.01986,0,20, 
207561, 1,28.13297,27601,26.37131,107.93900,705.16479,Null, Null, Null, Null, Null, -19.04297, 4.39453, 1029.78520, -1.57252, 3.19847, -2.20611, 26.70000, -20.40000, 60.75000, 33.30119, 14,3.99369,0.07531,0.02013,0,21, 
212477, 1,28.07989,27601,26.62677,87.70700,705.16479,Null, Null, Null, Null, Null, -16.11328, 3.90625, 1028.80860, -3.64122, 3.00763, 0.82443, 24.75000, -19.80000, 59.55000, 33.15742, 14,3.90910,0.07371,0.01970,0,23, 
217030, 0,28.01133,27601,26.75412,81.85600,705.16479,Null, Null, Null, Null, Null, -18.06641, -61.52343, 1041.99220, -1.73282, 1.22901, -1.30534, 25.35000, -19.95000, 60.75000, 32.91781, 14,3.82773,0.07218,0.01929,0,26, 
221595, 1,27.96709,27601,26.91117,77.09100,705.16479,27.90913,27610,41.63152,172.10100,704.27167,-18.06641, -3.41797, 1034.17970, 1.10687, 1.26718, 1.01527, 25.65000, -21.15000, 60.00000, 33.10950, 14,3.79762,0.07161,0.01914,0,29, 
223336, 0,27.98953,27600,27.06258,89.78300,705.16479,28.08258,27611,40.87703,59.06400,704.18451,-10.74219, 4.39453, 1027.83200, -2.32061, 4.41985, -1.38931, 25.80000, -20.10000, 59.85000, 33.25327, 14,3.76793,0.07105,0.01899,0,33, 
225079, 0,28.04071,27602,27.13322,94.38600,705.07495,28.34478,27612,39.95236,77.95200,704.18451,-7.81250, -8.78906, 1037.59770, 1.51145, 0.96947, 2.04580, 24.60000, -22.20000, 59.70000, 33.10950, 14,3.73875,0.07050,0.01884,0,37, 
226819, 0,28.08431,27601,27.10895,98.21900,705.16479,28.55618,27612,38.60870,91.10900,704.09467,-6.34766, -10.25391, 1029.29690, 1.32061, 3.09160, 0.51908, 24.90000, -17.25000, 60.00000, 33.25327, 14,3.70999,0.06996,0.01870,0,42, 
228561, 0,28.11654,27601,27.02277,100.83000,705.07495,28.72304,27613,36.98884,97.85100,704.00482,-39.55078, -153.80859, 1012.69530, -1.20611, -2.66412, 0.35115, 25.05000, -21.00000, 60.60000, 33.06158, 14,3.68168,0.06942,0.01855,0,47, 
230301, 0,28.14308,27602,26.97498,100.40600,705.07495,28.84850,27613,35.42194,104.10100,704.00482,10.74219, -3.41797, 1026.36720, 0.16031, 3.58015, -0.87023, 31.20000, -17.70000, 65.55000, 33.25327, 14,3.65376,0.06890,0.01841,0,52, 
232044, 0,28.17941,27601,27.42765,96.01500,705.16479,28.94102,27613,33.97853,108.66000,704.09467,Null, Null, Null, Null, Null, Null, Null, Null, Null, Null, 14,3.57908,0.06749,0.01804,0,55, 
236841, 0,28.17784,27602,31.57586,73.81700,704.98511,28.93977,27613,31.18348,93.88800,704.00482,Null, Null, Null, Null, Null, Null, Null, Null, Null, Null, 15,3.75791,0.07086,0.01830,0,57, 
241639, 0,28.17088,27603,31.53515,72.72300,704.98511,28.88300,27612,29.56667,89.92700,704.09467,Null, Null, Null, Null, Null, Null, Null, Null, Null, Null, 15,3.68409,0.06947,0.01794,1,59, 
246439, 0,28.17309,27602,29.65279,72.15700,705.07495,28.82341,27612,28.60100,88.49100,704.09467,Null, Null, Null, Null, Null, Null, Null, Null, Null, Null, Scaled. Acc.X, Scaled. Acc.Y, Scaled. Acc.Z, Gyr.X, Gyr.Y, Gyr.Z, Mag.X, Mag.Y, Mag.Z, Tmp, 16,3.84600,0.07252,0.01813,0,60, 
251755, 1,28.20374,27602,30.45443,65.27100,704.98511,28.75723,27612,28.09231,86.10700,704.18451,22.94922, -18.06641, 1024.90230, 2.61069, 0.93893, 6.74809, 30.15000, -18.00000, 63.75000, 33.49289, 16,3.81931,0.07202,0.01800,0,60, 
253498, 0,28.29031,27602,31.29997,76.73600,705.07495,28.75001,27612,27.93944,100.94100,704.18451,-21.48437, -32.22656, 1033.69140, -2.03817, 0.14504, 8.29771, 29.55000, -17.10000, 64.95000, 33.49289, 16,3.79306,0.07152,0.01788,0,60, 
255239, 0,28.38352,27603,31.59454,86.25600,704.98511,28.77730,27611,27.72199,109.44700,704.18451,-12.20703, -3.41797, 1037.59770, -1.77863, 4.59542, -0.35878, 30.30000, -18.30000, 63.45000, 33.44496, 16,3.76713,0.07104,0.01776,0,60, 
256982, 0,28.45650,27602,31.09209,92.06100,705.07495,28.79455,27611,27.53215,115.29100,704.18451,-11.71875, -1.46484, 1021.97260, -2.05344, 1.09160, -0.83969, 31.05000, -17.10000, 63.45000, 33.49289, 16,3.74161,0.07055,0.01764,0,60, 
258719, 0,28.51338,27602,30.35667,95.54000,704.98511,28.80459,27611,27.38689,117.65700,704.18451,-13.67187, -5.37109, 1028.32030, -0.61832, 4.51908, -2.43511, 31.20000, -17.70000, 64.80000, 33.25327, 16,3.71636,0.07008,0.01752,0,60, 
260462, 0,28.56077,27602,29.62966,95.90500,705.07495,28.80709,27611,27.26361,120.90900,704.18451,-9.27734, -11.23047, 1032.22660, -2.19084, 3.05344, -2.56489, 29.85000, -16.80000, 62.70000, 33.58873, 16,3.69148,0.06961,0.01740,0,61, 
262202, 1,28.59805,27602,29.00101,97.47300,705.07495,28.80490,27611,27.19053,121.26100,704.27167,-4.88281, -26.85547, 1016.11320, -4.64122, 1.82443, -3.19084, 29.55000, -16.80000, 64.65000, 33.44496, 17,3.89613,0.07347,0.01782,0,62, 
263945, 0,28.62933,27602,28.46425,95.19300,704.98511,28.79549,27610,27.12810,123.14800,704.27167,-33.69141, -915.03900, 907.22650, -1.51908, -1.39695, 10.35878, 31.65000, -15.00000, 63.75000, 33.34912, 17,3.87038,0.07298,0.01770,0,62, 
265686, 0,28.66788,27600,28.87749,92.57200,705.52148,28.78138,27610,27.07093,124.53100,704.27167,-67.38281, -7.81250, 1024.41410, 1.96183, -2.37405, 3.92366, 28.95000, -17.25000, 60.75000, 33.58873, 17,3.84499,0.07250,0.01758,0,60, 
267425, 1,28.70327,27594,29.95335,90.17100,705.78833,28.76946,27609,27.01397,125.56600,704.36151,Null, Null, Null, Null, Null, Null, Null, Null, Null, Null, 18,3.99874,0.07540,0.01777,0,57, 
272232, 0,Null, Null, Null, Null, Null, 28.65812,27609,27.34700,92.42600,704.45135,Null, Null, Null, Null, Null, Null, Null, Null, Null, Null, 19,4.10528,0.07741,0.01776,0,55, 
279838, 0,Null, Null, Null, Null, Null, 28.49816,27608,27.70486,81.22700,704.45135,Null, Null, Null, Null, Null, Null, Null, Null, Null, Null, 19,3.99585,0.07535,0.01729,0,51, 
287447, 1,Null, Null, Null, Null, Null, 28.34259,27608,27.69783,77.95200,704.45135,Null, Null, Null, Null, Null, Null, Null, Null, Null, Null, Scaled. Acc.X, Scaled. Acc.Y, Scaled. Acc.Z, Gyr.X, Gyr.Y, Gyr.Z, Mag.X, Mag.Y, Mag.Z, Tmp, 19,3.93249,0.07415,0.01701,0,46, 
292040, 1,28.74244,27594,28.33911,37.82600,705.60870,28.26888,27607,27.60754,96.65600,704.71820,-10.74219, -8.78906, 1025.87890, -5.07634, 3.02290, 1.32061, 25.50000, -21.75000, 60.60000, 33.44496, 19,3.90898,0.07371,0.01691,1,42, 
293783, 0,28.84545,27597,29.40552,56.55500,705.34180,28.26763,27605,27.45582,108.73100,704.71820,-13.67187, 16.11328, 1036.13280, 1.92366, 0.48855, 3.35115, 25.50000, -19.80000, 62.10000, 33.44496, 19,3.88582,0.07327,0.01681,0,37, 
295521, 0,28.95350,27599,29.40915,71.05100,705.25195,28.28111,27606,27.31106,116.66600,704.62842,-17.57813, -4.39453, 1025.39060, 1.77863, -1.54198, -0.51145, 26.55000, -22.05000, 61.65000, 33.58873, 19,3.86289,0.07284,0.01671,0,32, 
297264, 2,29.03913,27600,28.85260,80.59100,705.25195,28.28802,27607,27.17152,120.73300,704.54120,-8.78906, -18.55469, 1029.29690, 0.96947, 1.76336, 0.70992, 26.70000, -20.40000, 61.80000, 33.49289, 19,3.84018,0.07241,0.01661,0,29, 
299009, 0,29.09916,27599,28.21745,86.79400,705.25195,28.29115,27607,27.07658,124.34500,704.54120,-17.57813, 5.85937, 1034.66800, -0.19847, 0.51908, 2.69466, 26.55000, -19.35000, 62.40000, 33.34912, 19,3.81777,0.07199,0.01652,0,27, 
