millis,bmetemp(*C),bmepres(Pa),bmehum(%),bmegas_res(KOhm),bmealt(m),bmptemp(*C),bmppres(PA),bmpalt(m),accX (mg),accY (mg),accZ (mg),gyrX (deg/sec),gyrY (deg/sec),gyrZ (deg/sec),magX (uT),magY (uT),magZ (uT),UV [0-1023],NO2[0-1023],CO[0-1023],NH3[0-1023],radiation count,rad count per min,uSv/h,uSv/h error,noise events,
1460,16.74,97668,32.85,4.33,308.85,20.27,97805.55,297.23,700.195,-688.965,-130.859,3.939,2.809,21.000,-17.550,-44.100,34.950,0,0,0,239,0,0.00,0.00,0.00,0,
2843,16.71,97670,32.69,4.62,308.76,20.28,97792.09,298.38,658.203,-693.848,-21.484,11.176,8.305,12.687,-16.200,-44.550,37.350,0,0,0,213,0,0.00,0.00,0.00,0,
4226,16.57,97673,32.59,5.18,308.59,20.28,97784.89,299.00,710.449,-736.816,112.793,-7.000,-8.802,7.687,-15.300,-43.350,41.550,0,0,0,207,1,15.15,0.29,0.29,0,
5609,16.53,97672,32.50,5.76,308.59,20.29,97779.74,299.44,895.508,-489.746,-104.980,-7.924,7.092,-43.038,-26.550,-37.800,34.500,0,0,0,204,2,22.44,0.42,0.30,0,
6996,16.53,97673,32.42,6.30,308.59,20.30,97763.86,300.80,882.812,-538.086,-218.750,-6.840,-21.786,9.679,-27.900,-37.950,32.400,0,0,0,204,2,17.83,0.34,0.24,0,
8377,16.56,97672,32.36,6.89,308.76,20.30,97754.22,301.63,920.898,-423.828,146.484,16.443,2.573,-6.779,-25.800,-30.900,45.750,0,0,0,204,2,14.79,0.28,0.20,0,
9760,16.59,97671,32.32,7.42,308.68,20.30,97749.61,302.02,-635.742,-806.152,-117.676,4.618,-8.809,101.305,21.750,-44.550,34.500,0,0,0,210,2,12.63,0.24,0.17,0,
11147,16.62,97673,32.27,7.92,308.59,20.31,97743.19,302.57,-835.449,-370.605,-357.910,11.840,12.802,-0.687,43.200,-21.300,27.600,0,0,0,191,2,11.03,0.21,0.15,0,
12530,16.64,97674,32.26,8.42,308.50,20.31,97732.91,303.45,-735.351,-466.797,-448.730,2.137,4.687,-1.130,43.050,-24.150,21.900,0,0,0,225,2,9.78,0.18,0.13,0,
13913,16.67,97674,32.24,8.89,308.50,20.31,97724.74,304.15,510.742,-845.215,-284.180,-0.115,-14.092,3.634,-9.300,-49.800,31.350,0,0,0,197,2,8.79,0.17,0.12,0,
15299,16.70,97674,32.25,9.32,308.59,20.30,97720.07,304.56,456.055,-706.543,-388.672,2.519,-9.496,5.611,-13.050,-49.800,19.650,0,0,0,187,2,7.98,0.15,0.11,0,
16686,16.72,97673,32.24,9.73,308.76,20.30,97718.45,304.69,277.832,-213.379,-1005.371,2.695,0.038,7.809,-22.350,-27.600,-10.650,0,0,0,162,3,10.96,0.21,0.12,0,
18070,16.74,97671,32.23,10.15,308.76,20.29,97713.61,305.11,207.520,-64.941,-908.203,-1.947,4.519,7.908,-22.650,-24.150,-12.750,0,0,0,133,3,10.11,0.19,0.11,1,
19472,16.76,97671,32.20,10.56,308.76,20.26,97709.33,305.48,289.551,-105.469,-930.664,-0.870,8.260,17.229,-22.650,-25.350,-12.450,0,0,0,226,3,9.37,0.18,0.10,0,
20856,16.78,97670,32.17,10.93,308.68,20.24,97707.30,305.65,348.633,57.617,-937.012,-1.275,3.160,0.084,-26.550,-18.300,-11.550,0,0,0,221,4,11.66,0.22,0.11,0,
22237,16.80,97671,32.15,11.25,308.68,20.20,97704.50,305.89,369.629,115.723,-888.184,-0.664,1.550,-10.687,-26.550,-17.100,-11.250,0,0,0,195,5,13.65,0.26,0.12,0,
23620,16.82,97672,32.14,11.66,308.68,20.15,97702.94,306.02,326.172,152.344,-992.676,11.237,1.649,1.435,-26.550,-16.350,-12.300,0,0,0,195,5,12.84,0.24,0.11,0,
25008,16.83,97671,32.11,11.94,308.76,20.10,97700.41,306.24,280.762,148.926,-921.387,-5.771,5.267,0.756,-27.000,-16.350,-13.050,0,0,0,204,5,12.12,0.23,0.10,0,
26390,16.85,97671,32.08,12.40,308.76,20.07,97698.81,306.38,412.598,142.578,-884.766,4.435,-3.450,15.664,-29.250,-14.850,-11.850,0,0,0,200,5,11.48,0.22,0.10,0,
27773,16.86,97671,32.05,12.59,308.76,20.02,97699.26,306.34,262.207,142.090,-946.777,13.847,5.313,-30.176,-28.050,-12.900,-11.850,0,0,0,215,5,10.90,0.21,0.09,0,
29161,16.88,97670,31.98,13.00,308.93,19.96,97698.28,306.42,252.441,71.777,-956.543,-1.382,6.328,5.870,-26.700,-12.750,-12.450,0,0,0,205,5,10.38,0.20,0.09,0,
30544,16.89,97670,31.93,13.28,308.85,19.91,97697.14,306.52,296.875,13.672,-937.988,7.252,1.687,-33.817,-28.200,-10.500,-12.750,0,0,0,197,5,9.91,0.19,0.08,0,
31927,16.90,97671,31.88,13.48,308.76,19.88,97696.80,306.55,121.094,103.516,-966.309,-49.214,0.176,-96.588,-26.100,-7.800,-15.300,0,0,0,215,5,9.47,0.18,0.08,0,
33313,16.91,97671,31.80,13.71,308.76,19.83,97696.21,306.60,-374.512,44.922,-921.875,10.008,-16.527,-60.618,1.350,21.300,-19.500,0,0,0,274,5,9.08,0.17,0.08,0,
34697,16.93,97671,31.74,14.02,308.85,19.79,97695.53,306.66,-431.152,-226.562,-861.328,14.260,0.450,10.282,18.300,12.300,-19.050,0,0,0,255,6,10.46,0.20,0.08,0,
36079,16.94,97670,31.68,14.26,308.85,19.72,97694.82,306.72,154.785,23.926,-988.281,-27.893,-5.214,-38.992,-25.050,-5.250,-12.600,0,0,0,362,6,10.05,0.19,0.08,0,
37464,16.95,97670,31.63,14.29,308.76,19.68,97694.60,306.74,121.094,-152.344,-955.566,-19.687,-1.336,-3.840,-23.700,-10.950,-11.550,0,0,0,620,6,9.68,0.18,0.07,0,
38847,16.96,97671,31.63,14.38,308.76,19.62,97694.05,306.79,203.613,-274.414,-990.723,20.603,3.183,2.725,-21.450,-15.600,-11.550,0,0,0,491,6,9.33,0.18,0.07,0,
40230,16.98,97672,31.68,14.61,308.76,19.57,97693.25,306.86,14.160,-218.262,-916.992,-27.939,17.824,1.771,-23.400,-7.050,-14.700,0,0,0,376,6,9.01,0.17,0.07,0,
41613,16.99,97671,31.77,14.79,308.76,19.54,97692.88,306.89,198.242,361.328,-906.738,16.427,22.756,-2.282,-22.200,-1.050,-13.800,0,0,0,289,6,8.71,0.16,0.07,0,
42994,17.01,97672,31.84,14.86,308.68,19.50,97692.57,306.91,-319.336,-8.789,-949.219,18.160,-31.687,-71.595,16.650,21.000,-13.800,0,0,0,219,7,9.83,0.19,0.07,0,
44378,17.02,97671,31.92,15.08,308.68,19.46,97691.70,306.99,-191.406,-231.934,-935.059,14.809,3.527,-7.252,14.850,11.550,-19.050,0,0,0,212,7,9.52,0.18,0.07,0,
45761,17.03,97672,32.00,15.04,308.59,19.43,97690.97,307.05,-279.297,-204.590,-920.898,2.603,14.649,2.153,17.400,9.450,-18.750,0,0,0,206,7,9.23,0.17,0.07,0,
47148,17.04,97672,32.05,15.27,308.68,19.40,97690.78,307.07,-231.934,-389.648,-866.699,24.412,14.244,-9.626,16.950,4.200,-20.700,0,0,0,207,7,8.96,0.17,0.06,0,
48531,17.05,97671,32.09,15.45,308.76,19.37,97690.57,307.09,-325.195,-194.824,-918.457,23.748,-53.076,-12.611,13.650,12.900,-19.500,0,0,0,224,8,9.94,0.19,0.07,0,
49914,17.06,97672,32.11,15.60,308.76,19.33,97690.75,307.07,-288.086,-374.023,-923.340,11.084,-2.107,-7.008,15.450,3.750,-21.000,0,0,0,214,8,9.67,0.18,0.06,0,
51301,17.07,97671,32.11,15.82,308.76,19.29,97690.94,307.05,238.281,-170.410,-1175.293,-41.450,-11.427,149.252,-16.350,10.500,-13.950,0,0,0,223,8,9.41,0.18,0.06,0,
52684,17.08,97670,32.10,16.17,308.85,19.26,97691.32,307.02,89.844,169.922,-871.094,26.588,7.565,-6.115,-25.500,0.750,-13.350,0,0,0,229,8,9.16,0.17,0.06,0,
54069,17.10,97670,32.09,16.18,308.85,19.22,97691.75,306.98,185.547,16.602,-982.910,8.260,-4.939,5.580,-28.050,-1.800,-14.100,0,0,0,273,8,8.92,0.17,0.06,0,
55459,17.11,97670,32.07,16.33,308.85,19.17,97692.53,306.92,163.574,-6.348,-866.211,-2.496,1.489,5.466,-27.150,-1.650,-16.050,0,0,0,219,8,8.70,0.16,0.06,0,
56843,17.12,97671,32.05,16.70,308.76,19.11,97692.91,306.88,167.969,244.141,-1090.820,-8.305,0.267,-0.237,-24.300,4.500,-16.200,0,0,0,700,8,8.48,0.16,0.06,0,
58225,17.13,97671,32.02,16.88,308.76,19.07,97693.33,306.85,171.875,-129.883,-951.660,-12.137,-11.282,-1.168,-26.400,-2.100,-16.800,0,0,0,715,8,8.28,0.16,0.06,0,
59612,17.14,97670,31.95,16.98,308.76,19.03,97693.64,306.82,168.945,59.570,-1024.902,1.992,-4.153,5.878,-26.400,1.650,-16.800,0,0,0,628,8,8.09,0.15,0.05,0,
60995,17.15,97671,31.90,16.99,308.76,18.99,97693.99,306.79,140.137,81.543,-1007.812,1.351,5.962,-2.771,-24.150,0.150,-16.800,0,0,0,468,8,7.90,0.15,0.05,0,
62375,17.16,97671,31.84,17.01,308.68,18.95,97694.40,306.75,156.738,125.977,-947.754,8.313,-7.229,4.878,-27.300,1.050,-16.950,0,0,0,211,8,7.73,0.15,0.05,0,
63759,17.18,97671,31.77,17.15,308.85,18.92,97694.39,306.76,66.406,-187.500,-956.543,8.588,2.237,5.351,-25.500,-8.400,-16.650,0,0,0,325,8,7.56,0.14,0.05,0,
65145,17.19,97670,31.70,17.35,308.76,18.87,97694.41,306.75,192.383,-120.117,-1041.016,-4.557,0.389,-3.435,-25.500,-2.250,-16.200,0,0,0,251,9,8.32,0.16,0.05,0,
66529,17.20,97671,31.63,17.48,308.76,18.82,97694.07,306.78,113.770,-125.000,-1006.836,-3.290,7.344,-8.763,-24.900,-4.350,-18.300,0,0,0,701,9,8.15,0.15,0.05,0,
67912,17.21,97670,31.58,17.58,308.85,18.78,97693.82,306.80,124.512,2.441,-1017.090,-4.107,-0.168,-4.168,-25.350,-1.200,-17.250,0,0,0,705,9,7.98,0.15,0.05,0,
69299,17.22,97669,31.51,17.77,308.93,18.75,97693.91,306.80,141.113,-2.441,-1009.766,-3.351,0.595,-1.305,-26.100,-1.650,-17.250,0,0,0,600,9,7.82,0.15,0.05,0,
70682,17.23,97669,31.48,17.86,308.93,18.71,97694.32,306.76,127.441,19.043,-945.312,-9.099,4.588,-1.023,-25.050,-1.050,-17.700,0,0,0,612,9,7.67,0.14,0.05,0,
72066,17.24,97670,31.47,17.94,308.93,18.65,97694.44,306.75,123.535,72.266,-973.144,-21.779,-5.298,3.863,-28.050,3.750,-13.800,0,0,0,617,9,7.52,0.14,0.05,0,
73451,17.25,97670,31.44,18.08,308.85,18.60,97694.49,306.75,114.258,-27.832,-991.211,-3.740,-0.282,1.802,-26.550,-4.200,-17.400,0,0,0,380,9,7.38,0.14,0.05,0,
74834,17.27,97671,31.44,18.17,308.85,18.57,97694.49,306.75,190.918,-129.395,-945.801,3.832,0.748,-1.924,-28.650,-12.300,-16.050,0,0,0,434,10,8.05,0.15,0.05,0,
76218,17.28,97670,31.43,18.30,308.85,18.51,97694.02,306.79,157.715,-163.086,-981.934,-2.115,1.595,-1.733,-25.650,-14.700,-16.050,0,0,0,362,11,8.69,0.16,0.05,0,
77603,17.29,97670,31.43,18.37,308.85,18.47,97693.99,306.79,255.371,-164.551,-939.941,0.282,1.969,-3.008,-26.700,-14.250,-14.250,0,0,0,389,11,8.53,0.16,0.05,0,
78987,17.30,97670,31.41,18.29,308.85,18.41,97693.36,306.84,329.590,-109.375,-1632.324,-4.344,-0.405,5.832,-25.500,-20.550,-14.100,0,0,0,342,11,8.38,0.16,0.05,0,
80370,17.31,97669,31.42,18.37,308.85,18.38,97693.21,306.86,165.039,-208.008,-948.730,-2.359,-7.901,-0.282,-26.100,-9.600,-16.500,0,0,0,258,11,8.24,0.16,0.05,0,
81754,17.32,97669,31.42,18.64,308.85,18.32,97692.36,306.93,314.453,-176.758,-546.387,16.115,-2.191,30.740,-21.600,-5.400,-17.850,0,0,0,446,11,8.10,0.15,0.05,0,
83138,17.33,97669,31.42,18.83,308.93,18.28,97692.21,306.95,212.402,-32.715,-954.590,1.107,8.458,5.786,-24.600,-8.550,-15.300,0,0,0,387,11,7.96,0.15,0.05,0,
84521,17.34,97669,31.39,19.07,309.02,18.25,97692.33,306.93,94.727,-3.906,-947.754,-3.122,5.672,-4.962,-24.900,-7.050,-16.800,0,0,0,269,11,7.83,0.15,0.04,0,
85905,17.35,97669,31.35,19.17,308.93,18.23,97692.13,306.95,133.301,-78.125,-955.078,-2.328,-1.344,2.618,-23.100,-5.850,-17.550,0,0,0,150,11,7.71,0.15,0.04,0,
87289,17.36,97669,31.30,19.40,308.93,18.21,97692.26,306.94,227.051,-131.836,-1086.914,-8.504,12.725,-4.809,-24.900,-5.850,-14.700,0,0,0,184,11,7.58,0.14,0.04,0,
88673,17.37,97668,31.25,19.62,308.93,18.18,97691.52,307.00,18.555,-552.246,-838.379,-6.328,-15.679,-4.206,-24.900,-26.850,-9.150,0,0,0,246,12,8.14,0.15,0.04,0,
90057,17.38,97669,31.18,19.64,308.93,18.14,97691.17,307.03,-385.254,-245.117,-861.816,14.374,-1.947,-17.168,18.750,9.900,-19.950,0,0,0,211,12,8.02,0.15,0.04,0,
91454,17.38,97669,31.11,19.81,308.93,18.11,97690.60,307.08,-489.258,-382.812,-801.758,-6.084,-2.420,-0.198,23.850,2.850,-17.850,0,0,0,211,12,7.90,0.15,0.04,0,
92838,17.39,97670,31.06,19.94,308.85,18.06,97691.17,307.03,-347.168,-281.738,-911.621,0.061,24.000,28.473,15.450,6.450,-22.800,0,0,0,231,12,7.78,0.15,0.04,0,
94221,17.41,97670,31.01,20.03,308.93,18.03,97690.91,307.06,-190.918,-162.109,-961.426,-14.420,-10.221,-1.328,2.550,11.700,-22.500,0,0,0,209,12,7.66,0.14,0.04,0,
95607,17.41,97670,30.98,20.09,308.85,18.01,97691.83,307.11,-248.535,-455.566,-809.570,5.069,11.863,-15.023,7.950,-3.900,-26.700,0,0,0,211,12,7.55,0.14,0.04,0,
96991,17.42,97670,31.00,20.25,308.85,17.98,97690.14,307.12,-168.945,-541.992,-785.644,-5.618,-6.382,-16.748,6.450,-8.100,-25.950,0,0,0,205,12,7.44,0.14,0.04,0,
98374,17.43,97670,31.02,20.29,308.93,17.96,97689.75,307.15,-205.566,-640.625,-751.465,6.580,5.885,0.092,5.100,-10.650,-25.050,0,0,0,156,13,7.95,0.15,0.04,0,
99760,17.44,97671,31.01,20.43,308.85,17.94,97689.57,307.17,-110.352,-688.476,-687.988,4.046,15.794,6.359,1.200,-15.750,-24.750,0,0,0,255,13,7.84,0.15,0.04,0,
101143,17.44,97670,31.00,20.49,308.85,17.93,97689.58,307.17,-5.859,-741.211,-639.648,6.794,11.076,-6.580,1.200,-19.650,-24.150,0,0,0,74,14,8.33,0.16,0.04,0,
102526,17.44,97671,30.98,20.69,308.85,17.92,97689.21,307.20,39.551,-801.269,-581.543,7.588,-23.092,-4.504,-1.200,-24.900,-21.150,0,0,0,714,14,8.21,0.15,0.04,0,
103909,17.44,97670,30.92,20.81,308.85,17.90,97689.32,307.19,-136.230,-750.000,-532.715,-0.244,3.122,-9.527,-4.200,-26.550,-20.100,0,0,0,249,14,8.10,0.15,0.04,1,
105296,17.45,97669,30.88,20.87,308.93,17.88,97689.91,307.14,-222.656,-970.703,-377.441,-10.710,1.427,7.290,-4.350,-37.350,-15.150,0,0,0,587,14,8.00,0.15,0.04,1,
106680,17.45,97670,30.83,21.00,308.93,17.86,97690.67,307.08,-281.738,-854.980,-379.394,-12.794,26.603,10.221,-3.600,-35.400,-14.850,0,0,0,372,14,7.89,0.15,0.04,0,
108063,17.45,97670,30.77,20.98,308.85,17.82,97691.11,307.04,41.016,-264.160,-598.145,8.763,14.725,-14.695,4.050,-9.150,-24.300,0,0,0,478,14,7.79,0.15,0.04,0,
109450,17.46,97670,30.76,20.94,308.85,17.77,97691.10,307.04,-389.648,-52.734,-922.363,20.550,8.718,-8.878,9.150,15.150,-21.300,0,0,0,270,14,7.69,0.15,0.04,0,
110831,17.47,97670,30.81,20.98,308.93,17.74,97691.66,306.99,-430.176,50.781,-928.223,-8.496,3.191,7.206,4.350,19.800,-21.000,0,0,0,217,14,7.60,0.14,0.04,0,
112215,17.47,97671,30.92,20.89,308.85,17.73,97691.97,306.96,-297.852,-5.859,-943.359,-3.260,4.244,-1.969,4.350,14.850,-21.000,0,0,0,215,14,7.50,0.14,0.04,0,
113601,17.48,97671,31.02,20.96,308.76,17.71,97692.35,306.93,-404.297,-168.945,-895.996,4.496,3.313,-14.137,6.900,9.150,-24.300,0,0,0,246,14,7.41,0.14,0.04,0,
114984,17.49,97671,31.12,20.94,308.85,17.69,97692.86,306.89,-371.582,-2.930,-937.500,4.481,1.000,-12.542,6.750,14.700,-20.850,0,0,0,221,14,7.32,0.14,0.04,0,
116367,17.50,97670,31.19,21.06,308.76,17.67,97692.99,306.88,-288.086,-348.144,-906.250,42.534,27.511,-63.687,7.200,0.450,-25.500,0,0,0,216,14,7.23,0.14,0.04,0,
117753,17.50,97670,31.26,21.17,308.76,17.65,97693.10,306.87,-110.840,-792.969,-585.449,12.985,11.221,11.618,5.850,-18.300,-25.050,0,0,0,341,14,7.15,0.13,0.04,0,
119137,17.51,97670,31.31,21.06,308.85,17.63,97692.99,306.88,-364.258,-643.066,-688.965,-1.397,1.221,-4.221,14.850,-9.600,-23.400,0,0,0,381,14,7.07,0.13,0.04,0,
120520,17.52,97671,31.39,21.11,308.76,17.60,97692.97,306.88,-281.250,-551.758,-706.543,4.084,6.031,1.565,12.000,-16.500,-22.950,0,0,0,224,14,6.98,0.13,0.04,0,
121906,17.53,97672,31.45,21.08,308.68,17.57,97692.92,306.88,-174.805,-661.621,-769.043,-40.137,-25.382,32.534,11.100,-10.950,-25.650,0,0,0,364,14,6.91,0.13,0.03,0,
123287,17.54,97671,31.55,21.15,308.76,17.56,97693.28,306.85,-490.723,-325.684,-792.480,-20.748,-18.763,29.931,17.850,4.350,-21.900,0,0,0,225,14,6.83,0.13,0.03,0,
124670,17.55,97672,31.66,21.15,308.68,17.54,97693.07,306.87,-300.293,-371.582,-886.719,10.183,10.122,-11.122,12.150,3.300,-25.350,0,0,0,204,14,6.75,0.13,0.03,0,
126065,17.56,97670,31.77,20.96,308.76,17.52,97693.01,306.88,-346.680,-667.969,-663.086,-10.443,-27.160,41.672,17.400,-10.200,-22.500,0,0,0,210,14,6.68,0.13,0.03,0,
127449,17.57,97671,31.86,21.15,308.76,17.51,97692.88,306.89,-31.250,-778.809,-617.676,5.840,7.954,-27.924,11.100,-18.300,-23.850,0,0,0,267,14,6.60,0.12,0.03,0,
128832,17.58,97671,31.95,21.30,308.76,17.50,97692.60,306.91,80.566,-800.781,-595.215,0.908,-6.786,-4.221,5.700,-22.200,-21.900,0,0,0,326,15,7.00,0.13,0.03,0,
130214,17.59,97672,32.01,21.21,308.68,17.48,97693.00,306.88,-27.344,-643.066,-794.434,-31.557,-29.389,65.122,11.100,-19.050,-22.500,0,0,0,277,15,6.93,0.13,0.03,0,
131602,17.60,97671,32.09,21.11,308.68,17.47,97692.88,306.89,-291.992,-426.269,-806.152,3.542,12.382,-5.786,14.850,-2.850,-24.750,0,0,0,227,15,6.85,0.13,0.03,0,
132985,17.61,97672,32.18,21.00,308.68,17.45,97693.39,306.84,-389.648,-264.648,-861.328,-0.061,-2.206,13.466,13.950,6.750,-22.500,0,0,0,209,15,6.78,0.13,0.03,0,
134369,17.63,97671,32.31,20.94,308.68,17.44,97692.99,306.88,10.254,1.953,-1097.656,21.878,29.931,88.878,-21.000,10.200,-15.600,0,0,0,180,16,7.16,0.13,0.03,0,
135756,17.64,97672,32.42,21.04,308.68,17.41,97693.54,306.83,185.059,-125.000,-1020.019,-3.611,8.771,5.748,-26.100,-8.550,-16.050,0,0,0,188,16,7.09,0.13,0.03,0,
137139,17.65,97671,32.55,20.98,308.68,17.38,97694.30,306.77,192.383,43.457,-1028.320,3.626,1.679,2.450,-26.400,-2.400,-15.000,0,0,0,249,16,7.01,0.13,0.03,0,
138518,17.66,97672,32.63,21.04,308.68,17.37,97694.66,306.73,98.633,117.676,-974.609,1.206,-5.656,-4.504,-27.300,-4.500,-15.150,0,0,0,237,16,6.94,0.13,0.03,0,
139904,17.67,97671,32.70,21.15,308.68,17.36,97694.28,306.77,83.008,171.387,-626.953,0.473,-7.962,-2.939,-24.600,1.650,-12.450,0,0,0,203,16,6.87,0.13,0.03,0,
141286,17.68,97672,32.73,21.28,308.68,17.35,97694.13,306.78,1.465,49.805,-1074.219,18.137,9.473,11.702,-27.000,-3.000,-10.800,0,0,0,127,16,6.81,0.13,0.03,0,
142669,17.69,97671,32.71,21.41,308.76,17.33,97694.08,306.78,143.555,150.879,-970.703,0.260,1.305,-0.069,-24.300,-9.450,-13.800,0,0,0,741,16,6.74,0.13,0.03,0,
144056,17.70,97671,32.65,21.61,308.76,17.32,97693.94,306.79,79.590,44.922,-1005.859,7.389,13.107,2.588,-17.100,-8.850,-19.050,0,0,0,432,16,6.68,0.13,0.03,0,
145438,17.71,97672,32.60,21.63,308.68,17.32,97693.55,306.83,-3.418,21.973,-1022.461,-8.191,7.763,5.084,-18.750,-9.450,-19.200,0,0,0,378,16,6.61,0.12,0.03,0,
146822,17.72,97672,32.50,21.63,308.59,17.30,97693.97,306.79,22.949,-44.922,-1005.371,1.855,-0.542,5.061,-19.200,-13.350,-17.700,0,0,0,300,16,6.55,0.12,0.03,0,
148208,17.73,97672,32.40,21.70,308.68,17.28,97694.08,306.78,53.711,-100.586,-996.582,-2.450,4.061,-6.794,-20.700,-15.600,-18.150,0,0,0,696,17,6.89,0.13,0.03,0,
149591,17.74,97671,32.33,21.67,308.68,17.27,97694.11,306.78,32.715,-36.621,-992.676,-1.435,-0.924,1.359,-18.600,-15.750,-19.050,0,0,0,281,17,6.83,0.13,0.03,0,
150974,17.75,97671,32.23,21.81,308.76,17.26,97694.39,306.76,44.434,-92.285,-968.262,2.252,1.916,0.519,-21.450,-16.350,-16.650,0,0,0,238,18,7.17,0.14,0.03,0,
152357,17.76,97671,32.16,21.79,308.68,17.24,97694.06,306.78,13.672,-90.820,-989.258,-0.061,5.802,1.458,-18.000,-14.400,-18.150,0,0,0,200,18,7.10,0.13,0.03,0,
153744,17.76,97670,32.08,21.90,308.76,17.22,97694.41,306.75,20.508,-73.242,-1007.324,1.908,1.435,1.450,-19.200,-15.150,-15.900,0,0,0,166,18,7.04,0.13,0.03,0,
155127,17.77,97671,32.02,22.06,308.68,17.21,97694.28,306.77,16.113,-82.031,-1053.711,-2.794,0.336,-12.420,-18.450,-15.150,-17.400,0,0,0,182,18,6.97,0.13,0.03,0,
156511,17.78,97671,31.95,21.99,308.68,17.19,97694.31,306.76,12.207,-43.457,-960.449,0.649,3.328,-3.565,-19.200,-14.850,-18.450,0,0,0,188,19,7.30,0.14,0.03,0,
157897,17.79,97671,31.89,22.16,308.76,17.18,97695.12,306.69,23.926,-90.332,-1004.394,3.389,-0.977,2.878,-19.050,-15.450,-16.800,0,0,0,217,19,7.23,0.14,0.03,0,
159281,17.80,97671,31.83,22.27,308.76,17.17,97695.36,306.67,1.953,-59.082,-1000.488,-0.023,2.160,-3.710,-19.200,-16.350,-17.400,0,0,0,167,20,7.55,0.14,0.03,0,
160662,17.82,97671,31.77,22.25,308.68,17.16,97695.62,306.65,15.137,-31.250,-997.070,8.145,5.473,-2.802,-19.050,-18.000,-17.550,0,0,0,180,20,7.48,0.14,0.03,0,
162057,17.82,97672,31.69,22.30,308.68,17.15,97695.50,306.66,-164.062,38.086,-895.996,29.802,-14.496,8.916,-14.250,-2.100,-20.100,0,0,0,191,20,7.42,0.14,0.03,0,
163442,17.83,97671,31.63,22.37,308.76,17.15,97695.33,306.68,-420.410,-129.395,-854.980,-6.573,3.397,-3.611,-0.150,-7.050,-23.700,0,0,0,188,20,7.35,0.14,0.03,0,
164827,17.84,97671,31.55,22.39,308.76,17.14,97695.44,306.67,-416.016,-100.098,-893.555,-1.153,8.359,1.618,-1.050,-8.400,-25.350,0,0,0,200,20,7.29,0.14,0.03,0,
166212,17.85,97670,31.49,22.44,308.85,17.14,97695.83,306.63,-415.527,-95.215,-895.996,1.573,2.298,1.954,-0.450,-6.300,-24.450,0,0,0,206,20,7.23,0.14,0.03,0,
167596,17.86,97670,31.45,22.51,308.85,17.14,97695.66,306.65,-349.121,-50.293,-952.148,-2.618,-18.542,-2.466,-3.000,-5.100,-24.150,0,0,0,220,20,7.17,0.14,0.03,0,
168979,17.87,97671,31.39,22.54,308.68,17.13,97695.68,306.65,-192.871,-257.324,-997.070,4.992,31.237,-16.252,-6.150,-5.250,-25.050,0,0,0,277,20,7.11,0.13,0.03,0,
170365,17.88,97672,31.32,22.61,308.68,17.13,97696.50,306.58,171.387,2.930,-1031.250,4.924,-3.489,-14.939,-22.950,-6.000,-15.600,0,0,0,214,20,7.05,0.13,0.03,0,
171748,17.88,97671,31.28,22.56,308.76,17.12,97696.82,306.55,143.066,-61.035,-992.187,-5.282,11.496,-3.656,-20.250,-3.300,-16.200,0,0,0,366,20,7.00,0.13,0.03,0,
173131,17.89,97671,31.25,22.56,308.76,17.12,97696.76,306.55,-28.809,47.363,-1022.949,-6.145,11.153,2.015,-21.750,-3.000,-16.950,0,0,0,268,20,6.94,0.13,0.03,0,
174515,17.90,97671,31.23,22.66,308.68,17.12,97696.17,306.60,116.699,-86.914,-997.559,10.374,7.863,1.076,-22.200,-2.550,-16.650,0,0,0,166,20,6.89,0.13,0.03,0,
175902,17.91,97671,31.22,22.54,308.68,17.12,97695.85,306.63,-30.762,-52.246,-1022.949,7.107,5.221,4.099,-23.700,-3.750,-19.950,0,0,0,176,20,6.83,0.13,0.03,0,
177286,17.92,97672,31.22,22.61,308.76,17.13,97695.38,306.67,87.891,-88.867,-1013.672,3.611,-0.794,4.084,-29.850,-3.750,-26.100,0,0,0,249,20,6.78,0.13,0.03,0,
178666,17.93,97672,31.21,22.71,308.76,17.13,97695.20,306.69,15.625,-44.922,-961.426,-5.221,3.191,1.969,-23.100,-3.900,-20.100,0,0,0,185,20,6.73,0.13,0.03,0,
180054,17.94,97672,31.22,22.68,308.68,17.14,97694.85,306.72,45.410,-87.402,-995.117,2.229,2.534,2.275,-20.700,-2.550,-19.950,0,0,0,205,20,6.67,0.13,0.03,0,
181437,17.95,97672,31.23,22.63,308.68,17.14,97694.37,306.76,51.270,-86.426,-975.098,1.160,-0.527,-0.893,-22.650,-3.600,-20.850,0,0,0,198,20,6.62,0.12,0.03,0,
182819,17.96,97672,31.23,22.76,308.68,17.14,97693.97,306.79,72.266,-36.621,-995.117,7.733,3.740,-2.466,-27.150,-3.900,-25.200,0,0,0,198,20,6.57,0.12,0.03,0,
184206,17.97,97673,31.27,22.78,308.68,17.14,97693.74,306.81,-43.945,-75.195,-990.723,-4.458,-0.160,-0.847,-20.700,-2.250,-22.050,0,0,0,215,20,6.52,0.12,0.03,0,
185589,17.99,97672,31.27,22.86,308.68,17.15,97693.07,306.87,34.180,-95.703,-1011.719,6.229,3.908,-3.733,-18.000,-6.000,-18.150,0,0,0,236,20,6.48,0.12,0.03,0,
186972,18.00,97673,31.29,22.73,308.68,17.15,97693.08,306.87,-17.090,-83.984,-986.816,-1.802,1.855,-0.481,-21.600,-5.850,-22.950,0,0,0,217,20,6.43,0.12,0.03,0,
188358,18.01,97672,31.30,22.56,308.68,17.16,97693.39,306.84,0.488,-69.336,-991.211,0.099,1.504,1.878,-20.550,-4.650,-21.600,0,0,0,220,20,6.38,0.12,0.03,0,
189742,18.03,97672,31.33,22.37,308.68,17.16,97693.36,306.84,23.926,-99.609,-959.961,7.626,7.802,-1.672,-22.200,-4.950,-25.050,0,0,0,205,20,6.33,0.12,0.03,0,
191124,18.04,97673,31.34,22.32,308.50,17.17,97693.54,306.83,-25.391,-197.266,-988.769,2.916,1.618,10.725,-18.450,-7.950,-22.050,0,0,0,230,20,6.29,0.12,0.03,0,
192507,18.06,97673,31.36,22.20,308.59,17.17,97693.60,306.82,139.648,-125.488,-962.891,5.076,1.405,2.588,-23.250,-5.700,-15.900,0,0,0,213,21,6.55,0.12,0.03,0,
193895,18.07,97673,31.39,22.11,308.59,17.17,97693.52,306.83,136.719,11.230,-962.891,0.275,-12.137,-64.458,-17.850,6.600,-17.850,0,0,0,202,21,6.51,0.12,0.03,0,
195277,18.09,97674,31.43,21.95,308.50,17.18,97693.66,306.82,-225.098,-55.176,-953.125,-3.832,5.458,4.740,-2.400,4.350,-22.950,0,0,0,169,22,6.77,0.13,0.03,0,
196659,18.11,97675,31.47,21.99,308.42,17.18,97694.08,306.78,-265.137,-92.285,-975.098,-1.229,2.878,-2.305,-3.450,7.350,-23.400,0,0,0,199,22,6.72,0.13,0.03,0,
198054,18.12,97674,31.54,21.85,308.50,17.19,97694.13,306.78,-328.125,-104.004,-921.875,-13.573,14.817,3.939,-3.300,5.700,-23.550,0,0,0,211,22,6.67,0.13,0.03,0,
199438,18.13,97673,31.69,21.74,308.59,17.19,97694.47,306.75,57.129,121.094,-966.797,-6.702,-1.473,-12.092,-18.300,12.000,-15.750,0,0,0,211,22,6.63,0.12,0.03,0,
200821,18.15,97673,31.88,21.61,308.59,17.18,97695.05,306.70,183.105,248.047,-928.223,23.611,7.702,-1.756,-21.450,10.650,-13.350,0,0,0,210,22,6.58,0.12,0.03,0,
202207,18.16,97673,32.16,21.58,308.50,17.18,97695.69,306.65,59.082,331.055,-990.234,-3.832,0.076,-6.466,-21.000,12.900,-12.600,0,0,0,178,22,6.54,0.12,0.03,0,
203590,18.18,97673,32.43,21.67,308.50,17.18,97696.25,306.60,242.676,350.098,-1127.441,-13.626,-0.580,5.748,-24.300,8.700,-14.100,0,0,0,208,22,6.49,0.12,0.03,0,
204974,18.19,97674,32.63,21.74,308.42,17.18,97696.88,306.54,149.902,157.715,-1167.480,-6.496,5.885,2.427,-22.950,-3.300,-14.100,0,0,0,317,22,6.45,0.12,0.03,0,
206359,18.20,97674,32.76,21.74,308.50,17.17,97697.14,306.52,337.891,45.410,-959.961,10.855,2.695,8.649,-23.700,-6.000,-13.050,0,0,0,229,23,6.70,0.13,0.03,0,
207742,18.21,97674,32.87,21.74,308.50,17.15,97697.35,306.50,-615.723,-28.809,-257.812,29.565,-117.969,29.786,27.300,-32.850,-11.550,0,0,0,171,23,6.65,0.13,0.03,0,
209124,18.23,97674,32.95,21.70,308.50,17.13,97697.22,306.51,-570.312,-160.645,-747.070,-11.656,22.634,-34.115,11.400,-24.750,-21.000,0,0,0,373,23,6.61,0.12,0.03,0,
210510,18.24,97674,33.05,21.65,308.50,17.12,97696.82,306.55,-450.195,-265.137,-870.605,-0.244,-4.183,-2.786,2.700,-26.100,-21.900,0,0,0,271,23,6.56,0.12,0.03,0,
211892,18.25,97674,33.14,21.63,308.50,17.11,97697.02,306.53,-458.008,-218.750,-738.769,-2.427,81.481,-43.305,8.100,-29.400,-20.250,0,0,0,149,23,6.52,0.12,0.03,0,
213275,18.26,97674,33.24,21.63,308.42,17.10,97697.10,306.52,132.813,-254.883,-1169.922,17.443,-21.122,4.832,-22.650,-20.700,-13.500,0,0,0,224,25,7.04,0.13,0.03,0,
214662,18.27,97676,33.35,21.58,308.25,17.08,97698.10,306.44,63.477,-1.953,-998.047,0.748,1.321,2.695,-19.500,-10.950,-16.650,0,0,0,284,25,7.00,0.13,0.03,0,
216044,18.29,97678,33.45,21.61,308.16,17.08,97699.14,306.35,56.641,9.277,-997.559,-1.344,0.870,-2.618,-20.100,-12.000,-17.550,0,0,0,263,25,6.95,0.13,0.03,0,
217427,18.30,97679,33.54,21.56,308.08,17.08,97699.62,306.31,39.551,-1.953,-980.957,1.267,0.695,0.198,-19.350,-13.500,-16.050,0,0,0,248,25,6.91,0.13,0.03,0,
218811,18.31,97680,33.62,21.76,308.08,17.08,97700.10,306.27,54.687,-0.488,-1000.000,2.382,1.260,1.496,-19.800,-12.000,-16.800,0,0,0,235,25,6.86,0.13,0.03,0,
220197,18.32,97679,33.68,21.67,307.99,17.09,97700.76,306.21,240.723,68.848,-901.367,-31.374,-21.763,0.450,-18.450,-10.950,-17.700,0,0,0,216,25,6.82,0.13,0.03,0,
221581,18.34,97680,33.72,21.67,308.08,17.09,97700.98,306.19,153.809,-39.551,-1122.070,2.473,24.458,-8.389,-20.850,-13.800,-15.750,0,0,0,222,25,6.78,0.13,0.03,0,
222964,18.35,97679,33.77,21.72,308.08,17.10,97701.53,306.14,413.574,-158.691,-914.551,-27.313,-14.969,4.466,-30.300,-19.350,-4.650,0,0,0,185,25,6.74,0.13,0.03,0,
224352,18.36,97676,33.79,21.81,308.33,17.09,97700.98,306.19,285.645,52.246,-353.516,9.718,2.969,-4.267,-26.550,-21.000,-9.300,0,0,0,179,25,6.69,0.13,0.03,0,
225734,18.37,97676,33.78,21.85,308.33,17.08,97700.52,306.23,156.250,-39.062,-905.273,-22.244,-1.336,-16.237,-27.750,-11.400,-11.850,0,0,0,123,25,6.65,0.13,0.03,0,
227118,18.39,97675,33.77,21.99,308.33,17.08,97699.96,306.28,799.316,91.797,-667.969,-41.405,-70.954,51.947,-39.150,-1.800,7.950,0,0,0,185,25,6.61,0.12,0.02,0,
228503,18.40,97674,33.75,21.92,308.50,17.07,97699.63,306.31,64.453,-108.887,-1022.461,20.641,6.435,14.885,-25.650,-7.350,-14.700,0,0,0,113,25,6.57,0.12,0.02,0,
229886,18.41,97673,33.72,22.02,308.59,17.07,97699.41,306.33,223.145,-58.594,-1007.324,3.389,-3.099,-2.176,-27.150,-7.050,-12.450,0,0,0,195,25,6.53,0.12,0.02,0,
231269,18.43,97673,33.68,22.11,308.59,17.07,97699.49,306.32,721.680,-56.152,-763.184,-11.695,-5.573,-19.435,-36.900,1.500,2.400,0,0,0,211,25,6.49,0.12,0.02,0,
232662,18.44,97674,33.62,22.32,308.50,17.06,97699.58,306.31,527.344,-10.254,-931.152,-4.527,3.618,0.824,-34.050,0.300,-5.700,0,0,0,209,25,6.45,0.12,0.02,0,
234047,18.45,97675,33.53,22.30,308.50,17.05,97699.60,306.31,497.559,-71.777,-863.769,-5.137,-3.336,4.641,-35.850,1.500,-3.600,0,0,0,209,25,6.42,0.12,0.02,0,
235431,18.46,97675,33.43,22.39,308.42,17.04,97699.46,306.32,483.398,-110.352,-844.726,4.664,4.992,-1.420,-34.350,1.050,-2.400,0,0,0,210,25,6.38,0.12,0.02,0,
236817,18.47,97674,33.31,22.61,308.42,17.04,97699.79,306.30,750.000,-107.910,-546.875,-1.450,-4.084,5.031,-40.650,1.500,10.050,0,0,0,213,25,6.34,0.12,0.02,0,
238203,18.48,97674,33.16,22.68,308.42,17.03,97699.38,306.33,173.828,-40.527,-933.105,-12.870,-1.534,-0.122,-25.350,-4.350,-14.250,0,0,0,200,25,6.30,0.12,0.02,0,
239587,18.49,97676,33.00,22.96,308.42,17.03,97699.32,306.33,233.887,-227.539,-1112.305,-30.893,1.282,2.351,-26.250,-4.200,-14.100,0,0,0,240,25,6.27,0.12,0.02,0,
240970,18.51,97675,32.83,22.98,308.42,17.03,97699.48,306.32,138.184,-59.082,-1072.266,-3.481,7.786,-2.863,-23.850,-9.600,-16.050,0,0,0,192,25,6.23,0.12,0.02,0,
242358,18.51,97675,32.64,23.03,308.42,17.02,97698.85,306.37,169.922,-63.477,-1028.809,-14.313,-1.977,3.298,-24.150,-16.500,-15.750,0,0,0,206,25,6.20,0.12,0.02,0,
243741,18.52,97674,32.46,23.24,308.50,17.01,97698.71,306.38,49.316,-34.668,-903.320,2.260,8.450,4.794,-19.800,-16.200,-16.050,0,0,0,209,25,6.16,0.12,0.02,0,
245125,18.54,97675,32.27,23.26,308.42,17.01,97698.30,306.42,115.234,-67.383,-963.867,-1.573,-3.198,-0.244,-20.100,-16.200,-17.550,0,0,0,219,25,6.13,0.12,0.02,0,
246511,18.55,97675,32.08,23.13,308.42,17.01,97697.72,306.47,160.156,-123.047,-982.422,4.374,9.466,0.260,-22.950,-17.100,-16.200,0,0,0,245,25,6.09,0.11,0.02,0,
247895,18.55,97675,31.91,22.96,308.33,17.00,97697.91,306.46,184.570,-11.719,-928.223,-13.969,0.802,-11.473,-24.750,-14.250,-16.050,0,0,0,241,25,6.06,0.11,0.02,0,
249278,18.56,97675,31.71,22.83,308.42,17.00,97697.75,306.47,156.738,-105.469,-966.309,2.328,1.237,2.160,-23.850,-15.450,-14.250,0,0,0,206,27,6.51,0.12,0.02,0,
250664,18.57,97675,31.52,22.66,308.42,17.00,97697.82,306.46,241.211,-30.273,-935.059,1.489,2.824,1.366,-26.250,-14.400,-12.600,0,0,0,215,27,6.47,0.12,0.02,0,
252047,18.58,97674,31.33,22.54,308.42,17.00,97697.82,306.46,286.621,-30.762,-964.844,-3.183,3.985,2.382,-27.300,-14.850,-11.550,0,0,0,202,27,6.43,0.12,0.02,0,
253430,18.59,97675,31.18,22.51,308.50,17.00,97697.75,306.47,285.156,-21.973,-948.242,-2.450,3.328,-2.023,-29.250,-14.100,-10.500,0,0,0,211,27,6.40,0.12,0.02,0,
254817,18.60,97675,31.03,22.66,308.42,17.00,97697.91,306.46,289.551,-3.418,-967.773,-2.008,3.084,-0.511,-29.400,-14.700,-12.450,0,0,0,216,27,6.36,0.12,0.02,0,
256199,18.60,97675,30.92,22.68,308.42,17.00,97697.91,306.46,301.270,-22.461,-940.918,-3.802,0.458,-3.366,-29.850,-14.100,-11.250,0,0,0,210,27,6.33,0.12,0.02,0,
257583,18.61,97675,30.80,22.83,308.42,17.01,97697.67,306.47,299.316,-6.348,-967.773,-1.557,2.855,0.298,-30.150,-14.700,-9.150,0,0,0,217,27,6.30,0.12,0.02,0,
258969,18.62,97675,30.73,22.86,308.42,17.01,97698.05,306.44,318.359,-8.301,-939.453,0.221,0.573,0.595,-30.300,-14.100,-9.000,0,0,0,212,27,6.26,0.12,0.02,0,
260352,18.63,97675,30.67,22.98,308.33,17.01,97698.22,306.43,298.828,-18.555,-950.195,-3.130,4.214,-2.595,-30.900,-14.700,-9.900,0,0,0,205,27,6.23,0.12,0.02,0,
261735,18.64,97675,30.64,23.01,308.42,17.01,97697.89,306.46,311.035,-20.996,-946.777,-0.679,1.550,-4.649,-28.800,-15.150,-10.500,0,0,0,219,27,6.20,0.12,0.02,0,
263118,18.65,97674,30.62,22.91,308.50,17.01,97697.83,306.46,340.820,-21.973,-930.664,-3.076,2.038,-0.267,-28.950,-15.750,-8.100,0,0,0,217,27,6.16,0.12,0.02,0,
264506,18.66,97674,30.61,22.83,308.59,17.00,97697.89,306.46,332.519,-17.578,-933.105,-3.244,3.550,-3.847,-28.800,-15.600,-9.000,0,0,0,213,27,6.13,0.12,0.02,0,
265886,18.67,97674,30.57,22.93,308.50,17.00,97697.85,306.46,354.004,-19.043,-929.199,4.588,1.718,1.565,-29.550,-14.850,-8.700,0,0,0,213,27,6.10,0.12,0.02,0,
267270,18.68,97674,30.53,23.06,308.50,17.00,97697.74,306.47,358.887,-32.227,-934.570,0.977,-1.176,-1.053,-31.200,-15.750,-7.800,0,0,0,211,28,6.29,0.12,0.02,0,
268666,18.68,97676,30.49,23.16,308.33,17.00,97697.34,306.50,350.586,-19.043,-922.363,0.618,-0.374,0.359,-31.350,-15.600,-7.950,0,0,0,213,28,6.26,0.12,0.02,0,
270052,18.69,97676,30.45,23.34,308.42,17.01,97697.51,306.49,344.238,-19.043,-923.828,1.580,0.176,-0.443,-30.600,-15.600,-8.700,0,0,0,211,28,6.23,0.12,0.02,0,
271435,18.70,97675,30.41,23.42,308.42,17.01,97697.57,306.49,347.168,-18.066,-934.570,2.969,0.137,0.061,-30.450,-14.700,-9.150,0,0,0,212,28,6.20,0.12,0.02,0,
272822,18.71,97676,30.38,23.52,308.42,17.01,97697.65,306.48,340.820,-74.219,-949.219,2.366,0.802,-4.824,-30.900,-15.000,-8.850,0,0,0,207,28,6.16,0.12,0.02,0,
274202,18.72,97675,30.36,23.39,308.33,17.01,97697.42,306.50,385.254,4.395,-923.828,-2.489,1.908,1.244,-32.550,-14.400,-6.900,0,0,0,212,28,6.13,0.12,0.02,0,
275586,18.73,97675,30.33,23.52,308.42,17.01,97697.74,306.47,407.227,37.598,-875.488,0.695,-2.595,0.496,-32.100,-14.400,-6.900,0,0,0,207,28,6.10,0.12,0.02,0,
276970,18.74,97675,30.33,23.39,308.42,17.02,97697.47,306.49,384.277,-80.566,-869.629,-2.092,2.641,1.489,-31.050,-14.100,-8.250,0,0,0,208,28,6.07,0.11,0.02,0,
278353,18.75,97675,30.36,23.34,308.42,17.02,97697.56,306.49,421.387,-30.762,-901.367,3.168,6.298,0.420,-33.300,-14.400,-7.200,0,0,0,211,28,6.04,0.11,0.02,0,
279736,18.77,97674,30.37,23.34,308.42,17.02,97697.70,306.47,430.176,78.125,-888.184,3.550,-1.878,3.313,-32.850,-14.850,-5.700,0,0,0,209,28,6.01,0.11,0.02,0,
281119,18.78,97674,30.39,23.26,308.50,17.02,97697.70,306.47,437.500,13.672,-875.488,0.962,2.489,4.695,-32.850,-16.350,-6.150,0,0,0,210,28,5.98,0.11,0.02,0,
282507,18.79,97674,30.41,23.60,308.42,17.02,97697.39,306.50,437.500,-23.437,-873.047,-1.328,-0.489,-2.153,-33.450,-16.200,-3.450,0,0,0,211,29,6.16,0.12,0.02,0,
283890,18.80,97674,30.38,23.63,308.50,17.01,97697.00,306.53,457.031,-10.742,-882.324,0.305,1.924,-2.374,-35.100,-15.150,-4.650,0,0,0,215,29,6.13,0.12,0.02,0,
285273,18.81,97674,30.36,23.55,308.50,17.00,97696.85,306.55,504.883,-277.832,-857.422,20.206,12.092,11.458,-34.950,-15.750,-4.050,0,0,0,197,29,6.11,0.12,0.02,0,
286660,18.82,97674,30.34,23.42,308.33,17.00,97696.88,306.54,601.562,-62.012,-334.473,-13.939,-18.374,-14.420,-35.100,-15.150,-3.600,0,0,0,231,29,6.08,0.11,0.02,0,
288044,18.83,97675,30.30,23.67,308.42,16.99,97696.63,306.56,239.746,-124.512,-901.367,-6.122,5.435,-4.824,-25.650,-17.700,-12.750,0,0,0,201,29,6.05,0.11,0.02,0,
289427,18.85,97675,30.27,23.39,308.33,16.99,97696.63,306.56,-50.293,-81.055,-1027.344,-4.481,-14.908,-13.427,-18.300,-21.150,-17.850,0,0,0,185,29,6.02,0.11,0.02,0,
290814,18.86,97675,30.22,23.31,308.42,16.99,97696.79,306.55,58.105,-227.539,-929.199,-0.954,-4.260,-1.359,-21.450,-27.750,-14.100,0,0,0,197,29,5.99,0.11,0.02,0,
292198,18.87,97675,30.16,23.29,308.33,16.99,97696.79,306.55,62.500,-116.699,-992.187,-3.687,-7.183,-7.481,-19.350,-23.400,-13.950,0,0,0,184,29,5.96,0.11,0.02,0,
293581,18.88,97676,30.09,23.34,308.33,16.99,97696.86,306.55,68.848,-84.961,-1009.766,1.458,7.687,-4.412,-20.250,-23.250,-15.600,0,0,0,202,29,5.93,0.11,0.02,0,
294967,18.88,97674,30.00,23.47,308.50,16.98,97698.02,306.45,112.793,-126.465,-972.168,-2.962,1.511,-0.382,-20.250,-24.750,-14.100,0,0,0,207,29,5.90,0.11,0.02,0,
296350,18.89,97675,29.90,23.50,308.42,16.97,97698.36,306.42,118.652,-131.836,-972.168,-4.702,2.702,-2.885,-20.550,-24.600,-13.500,0,0,0,208,29,5.88,0.11,0.02,0,
297732,18.90,97674,29.79,23.58,308.42,16.97,97699.08,306.36,120.117,-152.832,-968.750,2.725,3.290,2.450,-21.000,-26.250,-14.100,0,0,0,209,29,5.85,0.11,0.02,0,
299118,18.91,97675,29.72,23.60,308.33,16.97,97699.75,306.30,132.813,-138.184,-1006.348,-2.672,1.290,-5.008,-21.600,-25.350,-11.400,0,0,0,208,30,6.02,0.11,0.02,0,
300502,18.92,97676,29.65,23.68,308.33,16.96,97699.74,306.30,110.840,-126.953,-972.168,-3.260,2.573,-0.908,-21.000,-26.700,-14.400,0,0,0,208,30,6.00,0.11,0.02,0,
301884,18.93,97675,29.61,23.82,308.42,16.96,97700.08,306.27,-68.848,-118.652,-521.973,-2.214,15.527,-7.733,-21.750,-21.000,-15.900,0,0,0,263,30,5.97,0.11,0.02,0,
303278,18.94,97675,29.55,23.91,308.33,16.95,97699.99,306.28,-79.102,-80.566,-1063.477,13.015,-5.786,-2.122,-15.450,-19.350,-18.450,0,0,0,421,30,5.94,0.11,0.02,0,
304662,18.94,97676,29.52,23.98,308.33,16.95,97700.08,306.27,-183.594,-58.105,-1036.621,2.771,-0.023,-5.817,-12.750,-21.150,-20.850,0,0,0,274,30,5.91,0.11,0.02,0,
306048,18.95,97675,29.47,24.17,308.33,16.94,97700.03,306.27,-199.219,-117.676,-963.867,-1.351,-28.977,-10.603,-11.400,-19.800,-21.750,0,0,0,233,30,5.89,0.11,0.02,0,
307431,18.96,97675,29.42,24.30,308.42,16.94,97699.46,306.32,-128.418,-80.566,-970.215,6.443,4.885,-1.924,-11.100,-19.800,-20.250,0,0,0,218,30,5.86,0.11,0.02,0,
308818,18.97,97675,29.35,24.34,308.42,16.94,97699.30,306.33,-201.660,-57.617,-970.703,-7.771,1.084,3.855,-9.150,-18.600,-21.000,0,0,0,212,30,5.83,0.11,0.02,0,
310202,18.98,97676,29.24,24.40,308.42,16.94,97698.72,306.38,-265.625,-131.348,-962.891,-2.023,5.672,-0.122,-7.500,-20.700,-22.200,0,0,0,211,30,5.81,0.11,0.02,0,
311585,18.98,97676,29.11,24.38,308.33,16.94,97698.67,306.39,-270.996,-166.504,-933.594,-0.015,3.931,-2.145,-8.100,-21.750,-21.750,0,0,0,211,30,5.78,0.11,0.02,0,
312973,18.98,97676,28.97,24.33,308.42,16.93,97698.34,306.42,0.488,42.969,-1020.996,8.916,14.496,-4.031,-15.450,-20.100,-19.500,0,0,0,128,30,5.76,0.11,0.02,0,
314356,18.98,97674,28.79,24.34,308.50,16.93,97698.74,306.38,-5.371,-7.812,-747.070,-19.557,4.061,-12.542,-13.950,-20.100,-19.200,0,0,0,120,30,5.73,0.11,0.02,0,
315745,18.98,97675,28.61,24.43,308.50,16.92,97698.60,306.40,10.742,-8.301,-1022.949,10.099,42.901,25.275,-16.050,-25.350,-15.750,0,0,0,257,30,5.71,0.11,0.02,0,
317132,18.98,97674,28.42,24.67,308.50,16.92,97698.19,306.43,-63.477,-132.813,-1005.371,-5.107,-7.542,3.863,-15.600,-24.900,-17.250,0,0,0,276,30,5.68,0.11,0.02,0,
318516,18.98,97674,28.28,24.66,308.50,16.91,97697.64,306.48,231.934,19.531,-989.258,-23.511,10.153,24.870,-23.700,-19.800,-13.050,0,0,0,383,30,5.66,0.11,0.02,0,
319899,18.98,97673,28.15,24.71,308.68,16.90,97697.02,306.53,136.230,-71.289,-1011.719,-8.031,3.947,-0.046,-22.200,-15.900,-14.850,0,0,0,316,30,5.63,0.11,0.02,0,
321286,18.98,97671,28.04,24.74,308.76,16.89,97696.86,306.55,-128.906,20.020,-826.660,10.427,-53.603,-6.252,-12.900,-9.900,-20.250,0,0,0,190,30,5.61,0.11,0.02,0,
322669,18.99,97670,27.96,24.73,308.85,16.87,97695.78,306.64,-287.109,-20.020,-890.625,3.198,10.374,6.534,-3.750,-14.700,-21.600,0,0,0,246,30,5.58,0.11,0.02,0,
324052,18.99,97670,27.88,24.80,308.93,16.86,97694.74,306.73,-107.422,-78.613,-980.957,-1.992,0.244,3.626,-12.900,-17.850,-19.950,0,0,0,223,30,5.56,0.10,0.02,0,
325439,19.00,97669,27.84,24.85,308.93,16.85,97694.46,306.75,-81.543,-106.445,-1014.160,-3.466,3.267,-2.702,-13.800,-21.450,-18.300,0,0,0,180,30,5.54,0.10,0.02,0,
326822,19.00,97668,27.81,24.80,309.02,16.84,97694.28,306.77,-75.195,-164.551,-961.426,0.817,-1.534,3.412,-16.050,-22.200,-16.500,0,0,0,194,30,5.51,0.10,0.02,0,
328206,19.01,97669,27.79,24.82,308.93,16.82,97693.19,306.86,139.648,-169.922,-981.934,2.656,14.206,-1.160,-19.800,-22.650,-14.250,0,0,0,195,30,5.49,0.10,0.02,0,
329592,19.02,97670,27.77,24.89,308.85,16.80,97692.90,306.88,6.836,-149.902,-967.773,-0.084,2.450,-3.366,-19.350,-23.100,-14.250,0,0,0,223,30,5.47,0.10,0.02,0,
330976,19.03,97670,27.76,24.77,308.85,16.78,97694.13,306.91,145.020,-178.223,-927.734,0.374,6.458,1.664,-23.100,-21.150,-11.700,0,0,0,165,30,5.44,0.10,0.02,0,
332359,19.04,97670,27.75,24.79,308.93,16.76,97692.33,306.93,239.746,-202.637,-989.746,-6.687,8.466,-3.481,-26.550,-22.800,-10.050,0,0,0,171,30,5.42,0.10,0.02,0,
333743,19.05,97671,27.75,24.80,308.76,16.73,97691.72,306.98,141.113,-150.391,-892.578,-3.282,-11.183,15.809,-25.650,-21.150,-11.400,0,0,0,416,30,5.40,0.10,0.02,0,
335130,19.06,97671,27.74,24.79,308.76,16.71,97691.69,306.99,378.418,-34.180,-1178.223,8.763,15.313,-13.023,-26.100,-19.950,-11.400,0,0,0,212,30,5.38,0.10,0.02,0,
336514,19.07,97671,27.75,24.86,308.76,16.70,97691.61,307.00,292.969,-178.711,-1065.430,-0.298,0.305,7.008,-26.550,-18.300,-11.550,0,0,0,203,30,5.35,0.10,0.02,0,
337897,19.08,97671,27.76,24.91,308.76,16.68,97691.49,307.01,221.191,-151.367,-958.008,-1.435,1.496,2.275,-27.300,-19.350,-11.550,0,0,0,284,30,5.33,0.10,0.02,0,
339294,19.08,97670,27.75,24.80,308.85,16.66,97691.19,307.03,233.398,-81.055,-975.098,-6.031,0.580,-2.802,-26.700,-18.450,-10.650,0,0,0,214,30,5.31,0.10,0.02,0,
340677,19.10,97671,27.79,24.85,308.85,16.65,97690.97,307.05,292.480,-170.410,-993.652,-5.840,-6.069,3.458,-25.800,-16.350,-11.550,0,0,0,284,30,5.29,0.10,0.02,0,
342064,19.11,97670,27.79,24.85,308.76,16.64,97690.99,307.05,451.660,-86.914,-1241.211,1.840,13.931,-12.267,-25.800,-15.600,-12.300,0,0,0,232,30,5.27,0.10,0.02,0,
343450,19.12,97671,27.80,24.69,308.76,16.62,97690.67,307.07,265.625,-56.641,-1008.789,5.473,-3.557,-0.832,-25.350,-14.700,-13.200,0,0,0,255,30,5.25,0.10,0.02,0,
344832,19.13,97671,27.82,24.73,308.76,16.60,97690.95,307.05,162.109,-8.789,-988.281,-3.840,-2.511,-3.313,-25.350,-12.750,-12.750,0,0,0,224,30,5.22,0.10,0.02,0,
346216,19.15,97671,27.83,24.77,308.76,16.59,97690.72,307.07,243.652,-10.254,-934.082,-0.611,-3.038,-2.962,-26.400,-13.050,-10.950,0,0,0,237,31,5.38,0.10,0.02,0,
347601,19.16,97671,27.85,24.83,308.68,16.58,97690.98,307.05,163.086,31.250,-968.750,-2.840,8.664,-9.916,-24.750,-11.400,-14.400,0,0,0,244,31,5.36,0.10,0.02,0,
348983,19.17,97671,27.87,24.80,308.68,16.56,97690.85,307.06,229.004,48.828,-964.844,1.763,2.954,-0.977,-24.900,-10.500,-12.450,0,0,0,219,31,5.33,0.10,0.02,0,
350366,19.18,97672,27.89,24.77,308.68,16.56,97690.86,307.06,224.121,69.824,-972.168,-2.176,2.702,-0.611,-25.650,-9.600,-10.950,0,0,0,198,31,5.31,0.10,0.02,0,
351753,19.20,97671,27.91,24.79,308.68,16.55,97690.78,307.07,249.023,40.039,-960.449,-1.397,0.786,-4.534,-25.050,-8.400,-11.850,0,0,0,220,31,5.29,0.10,0.02,0,
353136,19.21,97672,27.94,24.79,308.76,16.54,97691.02,307.05,254.883,108.887,-964.355,0.786,-2.153,-1.321,-27.000,-8.400,-12.600,0,0,0,213,31,5.27,0.10,0.02,0,
354520,19.22,97672,27.96,24.69,308.68,16.54,97690.96,307.05,260.742,127.441,-960.937,-0.046,0.313,-1.611,-28.200,-5.400,-9.900,0,0,0,218,31,5.25,0.10,0.02,0,
355903,19.24,97673,27.99,24.83,308.59,16.53,97690.99,307.05,234.863,88.867,-951.660,-5.115,3.656,-4.282,-27.450,-7.050,-10.650,0,0,0,233,31,5.23,0.10,0.02,0,
357281,19.25,97672,28.01,24.71,308.76,16.52,97691.00,307.05,268.066,198.730,-791.016,2.176,0.481,-1.992,-27.000,-7.500,-10.500,0,0,0,218,31,5.21,0.10,0.02,0,
358665,19.26,97672,28.03,24.63,308.68,16.51,97691.25,307.03,215.332,69.824,-959.473,11.550,-0.214,4.282,-26.700,-7.800,-10.350,0,0,0,215,31,5.19,0.10,0.02,0,
360048,19.27,97672,28.07,24.69,308.68,16.49,97691.11,307.04,285.645,183.105,-943.359,5.580,-2.038,-2.924,-28.800,-9.150,-10.050,0,0,0,214,31,5.17,0.10,0.02,0,
361436,19.28,97671,28.09,24.73,308.68,16.47,97691.64,306.99,232.910,82.031,-967.285,1.008,10.099,-12.855,-27.750,-7.500,-10.050,0,0,0,206,31,5.15,0.10,0.02,0,
362819,19.30,97672,28.11,24.58,308.68,16.44,97691.92,306.97,292.480,89.844,-971.680,-0.687,-4.458,-1.817,-28.800,-6.450,-8.250,0,0,0,224,31,5.13,0.10,0.02,0,
364203,19.31,97671,28.14,24.63,308.68,16.41,97691.88,306.97,238.281,39.062,-863.769,-1.031,4.588,-12.473,-28.050,-8.400,-8.700,0,0,0,298,31,5.11,0.10,0.02,0,
365589,19.32,97672,28.18,24.64,308.76,16.39,97692.12,306.95,270.020,-75.684,-986.816,7.092,13.847,-7.847,-27.900,-14.250,-8.850,0,0,0,254,31,5.09,0.10,0.02,0,
366972,19.33,97671,28.22,24.60,308.76,16.37,97692.24,306.94,148.926,-114.746,-1110.840,-9.985,-8.344,14.099,-28.800,-16.350,-9.000,0,0,0,204,31,5.07,0.10,0.02,0,
368356,19.35,97671,28.24,24.60,308.76,16.36,97692.19,306.95,223.633,-93.750,-986.328,0.450,0.435,-9.878,-26.700,-14.700,-10.950,0,0,0,314,31,5.05,0.10,0.02,0,
369741,19.36,97671,28.26,24.69,308.76,16.34,97692.44,306.92,383.301,-83.984,-917.969,-0.366,14.603,-8.595,-30.600,-15.600,-6.450,0,0,0,200,31,5.03,0.09,0.02,0,
371125,19.37,97671,28.28,24.51,308.68,16.30,97692.57,306.91,442.871,-72.754,-884.277,-0.908,3.244,-4.084,-32.550,-13.350,-3.900,0,0,0,210,31,5.02,0.09,0.02,0,
372508,19.39,97672,28.32,24.55,308.76,16.27,97692.95,306.88,466.797,-77.148,-867.676,-1.763,4.061,-0.107,-31.200,-15.000,-2.700,0,0,0,213,31,5.00,0.09,0.02,0,
373902,19.40,97672,28.35,24.48,308.59,16.24,97693.13,306.87,395.508,-73.242,-918.945,14.542,-23.305,16.992,-32.100,-15.900,-5.400,0,0,0,241,31,4.98,0.09,0.02,0,
375285,19.41,97672,28.37,24.58,308.68,16.20,97693.57,306.83,412.598,-178.223,-889.648,-1.672,0.870,-0.603,-34.200,-15.000,-1.950,0,0,0,214,32,5.12,0.10,0.02,0,
376671,19.42,97673,28.40,24.45,308.68,16.17,97694.57,306.74,343.262,-130.371,-919.434,-9.794,27.969,-9.267,-31.800,-17.550,-2.400,0,0,0,243,32,5.10,0.10,0.02,0,
378059,19.43,97673,28.42,24.45,308.59,16.15,97695.38,306.67,428.223,-140.137,-891.113,-4.061,5.542,-8.992,-35.100,-15.600,-0.300,0,0,0,205,32,5.08,0.10,0.02,0,
379443,19.45,97672,28.46,24.47,308.68,16.14,97695.66,306.65,346.191,-50.293,-714.844,3.183,-0.779,-1.351,-33.300,-15.900,-3.600,0,0,0,180,32,5.06,0.10,0.02,0,
380826,19.46,97673,28.48,24.51,308.68,16.12,97695.84,306.63,509.766,-46.875,-916.016,7.870,5.931,-3.092,-34.200,-14.250,-3.000,0,0,0,246,32,5.05,0.10,0.02,0,
382210,19.47,97672,28.50,24.50,308.59,16.11,97696.49,306.58,517.090,-253.418,-794.922,3.718,-12.481,8.183,-33.300,-12.150,-3.150,0,0,0,245,32,5.03,0.09,0.02,0,
383597,19.48,97673,28.52,24.41,308.50,16.10,97695.94,306.62,494.629,-71.289,-840.820,2.443,1.939,-1.298,-31.800,-11.400,-3.900,0,0,0,223,32,5.01,0.09,0.02,0,
384980,19.50,97673,28.55,24.44,308.59,16.08,97695.89,306.63,484.863,-99.609,-865.234,2.794,-10.947,0.000,-24.600,-5.400,-7.800,0,0,0,222,32,4.99,0.09,0.02,0,
386364,19.51,97673,28.58,24.48,308.50,16.07,97696.24,306.60,407.715,-53.223,-931.641,1.511,7.954,-4.763,-19.350,-7.050,-11.400,0,0,0,215,32,4.97,0.09,0.02,0,
387750,19.52,97673,28.61,24.37,308.59,16.05,97696.33,306.59,428.711,-56.641,-921.875,0.962,2.198,-8.069,-18.000,-5.700,-11.550,0,0,0,214,32,4.96,0.09,0.02,0,
389134,19.53,97674,28.63,24.50,308.50,16.04,97696.42,306.58,432.617,-59.082,-859.375,0.008,18.092,13.122,-31.950,-12.000,-4.050,0,0,0,209,32,4.94,0.09,0.02,0,
390517,19.55,97674,28.66,24.41,308.50,16.02,97696.35,306.59,468.262,-78.613,-936.035,-1.809,-0.695,1.168,-27.900,-10.800,-4.500,0,0,0,224,32,4.92,0.09,0.02,0,
391904,19.56,97674,28.68,24.43,308.50,16.00,97696.22,306.60,354.980,-93.262,-1117.187,-5.641,-15.718,-7.046,-28.950,-11.550,-6.300,0,0,0,243,32,4.90,0.09,0.02,0,
393287,19.57,97674,28.69,24.44,308.50,15.97,97696.66,306.56,392.578,-67.871,-881.836,-1.221,0.305,7.305,-30.300,-11.700,-5.700,0,0,0,206,32,4.89,0.09,0.02,0,
394671,19.58,97674,28.71,24.40,308.42,15.94,97697.50,306.49,421.387,-28.809,-847.168,4.748,-24.817,-3.687,-19.350,-6.300,-10.350,0,0,0,220,32,4.87,0.09,0.02,0,
396056,19.59,97675,28.73,24.44,308.50,15.91,97697.85,306.46,278.320,-122.559,-937.500,13.870,-1.313,17.176,-19.200,-8.700,-13.800,0,0,0,220,32,4.85,0.09,0.02,0,
397438,19.61,97674,28.73,24.33,308.59,15.88,97698.44,306.41,393.066,-83.984,-911.133,1.489,0.122,3.718,-17.550,-9.600,-13.950,0,0,0,234,32,4.83,0.09,0.02,0,
398821,19.62,97673,28.74,24.44,308.50,15.85,97698.89,306.37,399.902,-20.996,-949.707,-1.595,-0.740,4.046,-18.600,-11.250,-13.200,0,0,0,206,32,4.82,0.09,0.02,0,
400207,19.63,97673,28.75,24.31,308.50,15.83,97699.33,306.33,386.719,-79.102,-920.898,-1.519,3.740,-5.924,-20.100,-10.800,-13.200,0,0,0,207,32,4.80,0.09,0.02,0,
401591,19.64,97674,28.77,24.38,308.50,15.82,97699.82,306.29,312.012,5.859,-936.035,-5.206,2.351,6.504,-16.050,-7.050,-15.750,0,0,0,222,32,4.78,0.09,0.02,0,
402974,19.65,97674,28.77,24.41,308.50,15.80,97700.32,306.25,227.539,-160.645,-959.473,-3.450,-2.565,-2.954,-25.650,-12.750,-10.650,0,0,0,208,33,4.92,0.09,0.02,0,
404358,19.67,97674,28.77,24.28,308.50,15.79,97700.24,306.26,423.828,-119.141,-936.523,6.115,-16.443,-13.618,-28.800,-16.800,-7.200,0,0,0,230,33,4.90,0.09,0.02,0,
405745,19.68,97674,28.77,24.26,308.42,15.78,97700.49,306.23,378.418,-30.273,-997.070,-20.061,14.863,16.740,-9.000,-15.000,-21.600,0,0,0,192,34,5.03,0.09,0.02,0,
407129,19.69,97675,28.76,24.28,308.42,15.78,97700.89,306.20,303.711,-61.035,-900.391,1.893,-0.389,-6.008,-26.550,-16.350,-7.950,0,0,0,201,34,5.01,0.09,0.02,1,
408511,19.70,97675,28.78,24.26,308.42,15.77,97700.75,306.21,325.684,-64.453,-931.641,-2.000,6.794,1.573,-25.650,-35.700,-14.700,0,0,0,212,34,5.00,0.09,0.02,0,
409906,19.71,97675,28.77,24.28,308.42,15.76,97700.83,306.21,208.496,-124.023,-891.113,11.496,-0.740,10.916,-26.550,-33.150,-13.050,0,0,0,192,35,5.13,0.10,0.02,0,
411288,19.73,97675,28.77,24.17,308.42,15.75,97700.84,306.20,611.328,-46.875,-804.199,1.000,0.916,2.763,-50.400,1.200,-16.500,0,0,0,229,35,5.11,0.10,0.02,0,
412673,19.74,97674,28.79,24.21,308.42,15.74,97701.10,306.18,649.414,-60.547,-777.344,3.885,-0.344,-0.603,-73.050,-0.900,-37.500,0,0,0,204,35,5.09,0.10,0.02,0,
414062,19.75,97675,28.79,24.20,308.33,15.73,97701.21,306.17,617.676,-103.516,-799.805,15.015,4.000,1.489,-69.600,-4.200,-38.100,0,0,0,225,35,5.07,0.10,0.02,0,
415446,19.76,97674,28.79,24.13,308.50,15.72,97701.38,306.16,638.672,-174.805,-760.254,0.099,-0.008,3.794,-69.000,-46.350,-12.450,0,0,0,208,35,5.06,0.10,0.02,1,
416829,19.78,97674,28.79,24.12,308.50,15.71,97701.46,306.15,610.352,-107.422,-778.809,3.359,2.252,-0.244,-53.250,-75.600,43.950,0,0,0,224,35,5.04,0.10,0.02,0,
418214,19.79,97674,28.81,24.17,308.50,15.72,97701.78,306.12,256.348,-83.008,-1083.496,-18.153,-64.344,23.626,-30.900,-15.000,-9.900,0,0,0,292,35,5.02,0.09,0.02,0,
419598,19.80,97674,28.81,24.28,308.50,15.72,97701.61,306.14,-504.394,-14.648,-838.867,-5.489,2.160,-2.183,6.600,-14.100,-23.550,0,0,0,266,35,5.01,0.09,0.02,0,
420981,19.81,97674,28.82,24.19,308.42,15.73,97700.74,306.21,-130.859,-269.531,-944.824,-18.565,1.771,-0.298,-12.000,-20.400,-20.100,0,0,0,223,35,4.99,0.09,0.02,0,
422366,19.82,97674,28.83,24.24,308.42,15.73,97700.14,306.26,-6.836,-24.902,-994.141,-32.221,16.359,-2.115,-18.000,-10.950,-17.700,0,0,0,197,36,5.12,0.10,0.02,0,
423750,19.84,97674,28.84,24.28,308.50,15.74,97700.06,306.27,-9.277,52.246,-978.027,-109.237,-1.634,-13.076,-18.000,-9.450,-18.450,0,0,0,209,36,5.10,0.10,0.02,0,
425134,19.85,97674,28.82,24.17,308.50,15.74,97700.13,306.27,148.438,141.602,-1004.394,29.954,0.885,2.252,-21.000,-4.200,-14.850,0,0,0,213,36,5.08,0.10,0.02,0,
426516,19.86,97674,28.83,24.34,308.50,15.75,97699.48,306.32,21.484,-74.219,-914.062,-13.191,37.458,-34.611,-17.700,-13.350,-18.150,0,0,0,296,36,5.07,0.10,0.02,0,
427904,19.87,97674,28.81,24.23,308.50,15.76,97699.24,306.34,90.820,-144.043,-1126.953,1.374,98.969,-34.053,-22.500,-10.650,-15.600,0,0,0,113,36,5.05,0.10,0.02,0,
429286,19.89,97674,28.80,24.31,308.50,15.77,97699.39,306.33,982.422,-23.926,-428.223,39.954,21.931,19.969,-39.600,-15.900,23.550,0,0,0,156,36,5.03,0.09,0.02,0,
430669,19.90,97673,28.77,24.23,308.50,15.78,97699.04,306.36,96.191,-501.465,-915.039,20.397,-25.649,-0.321,-23.400,-33.000,-6.300,0,0,0,240,36,5.02,0.09,0.02,0,
432057,19.91,97674,28.76,24.28,308.59,15.78,97699.36,306.33,-387.695,-716.797,-423.340,43.656,-54.282,-56.000,-7.950,-51.000,1.950,0,0,0,167,36,5.00,0.09,0.02,0,
433440,19.92,97673,28.72,24.27,308.59,15.78,97698.96,306.37,-438.477,-966.309,-214.355,23.389,-24.511,24.626,1.200,-44.400,-7.050,0,0,0,310,36,4.99,0.09,0.02,0,
434824,19.94,97673,28.70,24.26,308.50,15.79,97698.57,306.40,-155.762,-828.613,-561.035,2.374,-0.573,-17.603,-10.050,-42.900,-8.100,0,0,0,148,36,4.97,0.09,0.02,0,
436211,19.95,97674,28.69,24.43,308.50,15.80,97699.28,306.34,-161.133,-805.664,-600.586,-7.099,-2.092,-1.053,-9.150,-38.850,-10.500,0,0,0,181,36,4.95,0.09,0.02,0,
437595,19.96,97674,28.66,24.38,308.50,15.80,97699.11,306.35,-44.434,-777.832,-572.266,6.061,-1.656,-7.832,-13.050,-38.250,-10.350,0,0,0,186,36,4.94,0.09,0.02,0,
438978,19.97,97675,28.65,24.34,308.42,15.81,97699.98,306.28,-84.961,-744.141,-637.695,2.542,-0.260,1.794,-12.900,-36.600,-11.250,0,0,0,218,36,4.92,0.09,0.02,0,
440366,19.98,97673,28.63,24.34,308.50,15.82,97699.82,306.29,-100.586,-764.648,-635.742,1.008,-1.145,2.504,-12.450,-36.150,-10.500,0,0,0,228,36,4.91,0.09,0.02,0,
441749,20.00,97674,28.61,24.34,308.50,15.83,97699.97,306.28,-135.742,-736.328,-636.230,3.901,0.069,-0.878,-11.850,-38.550,-11.250,0,0,0,209,36,4.89,0.09,0.02,0,
443131,20.01,97674,28.60,24.36,308.50,15.83,97700.19,306.26,-122.559,-767.578,-643.555,-8.008,-5.153,-6.863,-13.650,-35.400,-12.300,0,0,0,199,36,4.88,0.09,0.02,0,
444526,20.02,97675,28.58,24.24,308.50,15.84,97700.36,306.24,-109.863,-747.559,-628.418,-2.458,1.626,-3.740,-9.900,-34.650,-14.850,0,0,0,211,37,5.00,0.09,0.02,0,
445910,20.03,97675,28.57,24.37,308.42,15.84,97700.27,306.25,-134.766,-721.191,-655.273,0.802,3.130,-0.374,-9.300,-35.250,-12.450,0,0,0,217,37,4.98,0.09,0.02,0,
447293,20.05,97676,28.55,24.36,308.33,15.85,97700.74,306.21,-135.742,-708.984,-680.176,-1.573,2.176,-0.962,-10.650,-33.900,-13.800,0,0,0,215,37,4.97,0.09,0.02,0,
448681,20.06,97675,28.55,24.43,308.33,15.85,97700.18,306.26,-121.094,-685.547,-725.098,-10.336,-3.000,-1.153,-10.650,-32.400,-15.150,0,0,0,210,37,4.95,0.09,0.02,0,
450068,20.07,97676,28.53,24.26,308.33,15.85,97700.02,306.27,-140.625,-690.918,-708.008,32.611,-21.160,-34.168,1.950,-22.200,-22.200,0,0,0,239,37,4.94,0.09,0.02,0,
451451,20.09,97676,28.53,24.23,308.33,15.84,97701.17,306.18,-632.324,-754.883,-363.769,14.756,-13.115,10.298,37.200,-22.200,-9.600,0,0,0,163,37,4.92,0.09,0.02,0,
452838,20.10,97677,28.52,24.34,308.16,15.81,97702.07,306.10,-721.191,-652.344,-280.273,0.855,2.679,-2.160,42.300,-17.700,-0.900,0,0,0,205,37,4.91,0.09,0.02,0,
454221,20.11,97679,28.52,24.24,308.08,15.79,97702.41,306.07,-695.312,-635.254,-239.258,1.992,-0.053,3.076,42.300,-18.900,-2.700,0,0,0,210,37,4.89,0.09,0.02,0,
455604,20.12,97681,28.51,24.36,307.90,15.78,97703.08,306.01,-696.289,-678.711,-295.410,-7.282,6.099,0.817,40.500,-18.000,-3.450,0,0,0,209,37,4.88,0.09,0.02,0,
456986,20.14,97681,28.50,24.38,307.90,15.75,97703.25,306.00,-605.469,-694.824,-349.609,3.015,11.290,-5.023,38.550,-18.900,-5.250,0,0,0,216,37,4.86,0.09,0.02,0,
458372,20.15,97681,28.49,24.44,307.90,15.71,97703.88,305.94,-647.461,-675.293,-371.094,1.824,4.008,-2.649,38.850,-19.050,-7.500,0,0,0,214,37,4.85,0.09,0.02,0,
459754,20.16,97681,28.47,24.36,307.90,15.68,97703.83,305.95,-334.961,-649.414,-593.262,5.824,32.061,19.695,21.450,-14.850,-19.200,0,0,0,339,37,4.83,0.09,0.01,0,
461136,20.17,97680,28.46,24.36,307.99,15.63,97703.86,305.94,-263.672,-440.430,-944.824,16.481,29.374,-2.153,1.950,-8.850,-24.150,0,0,0,257,37,4.82,0.09,0.01,0,
462523,20.18,97679,28.44,24.40,308.08,15.58,97703.51,305.98,-440.430,16.602,-1055.176,-22.305,80.550,-4.122,7.200,-1.200,-22.950,0,0,0,237,37,4.80,0.09,0.01,0,
463906,20.20,97679,28.44,24.45,308.08,15.55,97703.41,305.98,-71.777,-413.574,-879.883,1.344,8.481,-4.550,-9.150,-11.400,-21.000,0,0,0,203,38,4.92,0.09,0.02,0,
465290,20.21,97678,28.41,24.41,308.08,15.52,97703.41,305.98,-36.621,-478.516,-830.078,-8.305,8.015,-13.099,-10.800,-14.250,-19.650,0,0,0,211,38,4.90,0.09,0.01,0,
466675,20.22,97679,28.38,24.43,308.08,15.48,97703.56,305.97,161.621,-284.180,-940.918,-18.435,-1.458,22.229,-21.450,-4.500,-15.150,0,0,0,268,38,4.89,0.09,0.01,0,
468060,20.23,97678,28.36,24.44,308.16,15.45,97703.82,305.95,127.441,-156.250,-989.746,18.771,-3.107,-6.145,-17.850,-1.650,-16.050,0,0,0,223,39,5.00,0.09,0.02,0,
469443,20.25,97677,28.34,24.45,308.25,15.43,97703.91,305.94,212.891,-192.871,-940.918,3.817,17.924,-3.962,-19.950,-1.500,-15.900,0,0,0,229,39,4.99,0.09,0.02,0,
470829,20.26,97676,28.30,24.54,308.25,15.41,97703.44,305.98,284.668,-256.836,-910.644,23.924,-10.977,11.687,-24.900,-9.600,-12.150,0,0,0,253,39,4.97,0.09,0.02,0,
472213,20.27,97677,28.28,24.54,308.25,15.39,97703.55,305.97,139.648,149.902,-931.641,-23.977,1.198,3.901,-21.900,-6.300,-14.700,0,0,0,377,39,4.96,0.09,0.01,0,
473596,20.28,97677,28.25,24.48,308.25,15.37,97702.91,306.03,125.000,269.531,-893.066,-18.275,12.969,11.290,-21.600,-1.200,-12.750,0,0,0,251,39,4.94,0.09,0.01,0,
474982,20.29,97676,28.22,24.48,308.33,15.36,97702.21,306.09,150.391,125.488,-981.934,-0.076,3.679,-16.504,-20.850,-5.100,-13.950,0,0,0,289,39,4.93,0.09,0.01,0,
476365,20.31,97676,28.19,24.51,308.33,15.35,97702.38,306.07,262.695,296.875,-915.039,-10.969,-5.397,-20.542,-25.350,4.350,-8.100,0,0,0,259,39,4.91,0.09,0.01,0,
477749,20.32,97677,28.16,24.55,308.25,15.35,97702.28,306.08,268.555,354.980,-877.441,63.290,6.420,-13.832,-4.050,25.950,-7.200,0,0,0,231,39,4.90,0.09,0.01,0,
479132,20.33,97678,28.14,24.43,308.25,15.35,97701.99,306.10,-21.973,268.066,-1028.320,54.885,-20.481,15.450,25.800,8.700,-14.100,0,0,0,114,41,5.14,0.10,0.02,0,
480525,20.34,97677,28.14,24.60,308.16,15.34,97701.85,306.12,-236.816,33.691,-999.512,-13.412,-1.198,0.916,38.250,-4.650,-9.900,0,0,0,445,41,5.12,0.10,0.02,0,
481908,20.35,97677,28.12,24.71,308.33,15.34,97701.11,306.18,-459.473,32.715,-923.340,-8.214,-2.756,-4.947,46.350,-4.650,-1.200,0,0,0,410,41,5.11,0.10,0.02,0,
483290,20.37,97676,28.11,24.58,308.25,15.34,97700.63,306.22,-180.664,-189.453,-911.133,-7.031,2.550,-5.908,38.850,-12.600,-10.500,0,0,0,704,41,5.09,0.10,0.01,0,
484679,20.38,97676,28.09,24.53,308.25,15.34,97699.83,306.29,-195.312,4.883,-941.894,5.229,3.832,-0.580,38.400,-3.000,-9.000,0,0,0,486,41,5.08,0.10,0.01,0,
486066,20.39,97677,28.08,24.60,308.25,15.34,97699.44,306.32,-242.187,-113.770,-974.609,-3.107,-2.656,-3.397,38.550,-6.600,-10.650,0,0,0,0,41,5.06,0.10,0.01,0,
487449,20.40,97676,28.08,24.50,308.33,15.34,97699.00,306.36,-208.008,-129.883,-953.125,-3.405,1.298,-10.641,37.350,-7.950,-11.550,0,0,0,258,41,5.05,0.10,0.01,0,
488837,20.41,97677,28.06,24.51,308.33,15.35,97698.86,306.37,-167.480,-76.172,-985.840,-1.840,2.863,-0.611,35.700,-8.850,-13.500,0,0,0,247,41,5.04,0.09,0.01,0,
490219,20.42,97675,28.04,24.51,308.42,15.35,97698.69,306.39,-43.945,-112.793,-965.332,0.443,-5.145,1.664,32.100,-10.200,-16.200,0,0,0,390,43,5.27,0.10,0.02,0,
491602,20.44,97675,28.01,24.58,308.42,15.36,97698.83,306.38,-69.336,-118.652,-1001.953,-9.183,5.015,-12.076,32.400,-8.850,-17.250,0,0,0,433,44,5.37,0.10,0.02,0,
492989,20.44,97675,27.99,24.57,308.50,15.36,97698.60,306.40,13.184,-5.371,-926.758,-7.237,14.908,-10.626,29.400,-13.050,-18.600,0,0,0,301,44,5.36,0.10,0.02,0,
494372,20.46,97675,27.95,24.57,308.42,15.36,97698.36,306.42,-51.270,-161.133,-948.730,14.069,-23.450,17.496,39.000,-12.000,-15.000,0,0,0,444,45,5.46,0.10,0.02,0,
495756,20.47,97676,27.91,24.73,308.42,15.37,97697.77,306.47,-139.648,-105.469,-951.660,0.221,-2.260,-1.931,39.150,-13.350,-14.100,0,0,0,497,45,5.45,0.10,0.02,1,
497142,20.48,97676,27.89,24.71,308.33,15.37,97697.96,306.45,-207.520,-134.277,-1021.484,-11.145,16.427,-15.420,38.550,-17.700,-9.600,0,0,0,309,45,5.43,0.10,0.02,0,
498526,20.49,97677,27.85,24.67,308.25,15.38,97697.94,306.45,-109.375,-257.324,-939.941,-3.649,6.053,-12.076,36.150,-25.200,-10.500,0,0,0,230,45,5.42,0.10,0.02,0,
499909,20.51,97676,27.81,24.63,308.25,15.38,97697.95,306.45,-215.820,-151.367,-1084.473,14.282,2.000,-3.008,33.300,-23.250,-13.050,0,0,0,202,45,5.40,0.10,0.02,0,
501294,20.52,97677,27.79,24.64,308.25,15.38,97697.85,306.46,-219.727,-207.520,-972.168,3.321,5.229,5.305,36.900,-23.250,-8.700,0,0,0,208,45,5.39,0.10,0.02,0,
502677,20.53,97677,27.76,24.66,308.25,15.39,97697.70,306.47,-177.246,-124.023,-939.941,-3.183,1.580,0.351,33.450,-26.100,-11.400,0,0,0,574,45,5.37,0.10,0.02,0,
504059,20.55,97676,27.71,24.64,308.33,15.39,97697.68,306.47,-166.504,-100.098,-989.258,-1.092,1.038,0.397,32.850,-22.500,-11.850,0,0,0,81,45,5.36,0.10,0.02,0,
505443,20.56,97677,27.70,24.70,308.25,15.40,97697.13,306.52,-192.871,-131.836,-947.266,-4.794,3.985,-3.649,34.950,-21.900,-9.150,0,0,0,165,45,5.34,0.10,0.02,0,
506828,20.57,97676,27.66,24.66,308.33,15.40,97697.18,306.52,-168.945,-145.508,-925.781,1.427,12.710,0.290,34.500,-22.200,-9.150,0,0,0,139,45,5.33,0.10,0.01,0,
508212,20.58,97676,27.65,24.70,308.33,15.40,97696.86,306.55,-245.605,-166.016,-951.660,0.420,-1.321,-2.053,35.700,-21.900,-9.600,0,0,0,181,45,5.32,0.10,0.01,0,
509595,20.59,97676,27.61,24.60,308.33,15.40,97696.63,306.56,-233.398,-164.062,-969.726,-4.435,4.427,-1.618,35.700,-20.400,-8.850,0,0,0,189,45,5.30,0.10,0.01,0,
510982,20.60,97676,27.58,24.60,308.25,15.40,97696.47,306.58,-227.051,-168.945,-973.633,-5.733,3.191,-2.603,37.650,-20.100,-10.500,0,0,0,194,45,5.29,0.10,0.01,0,
512365,20.62,97677,27.54,24.71,308.25,15.40,97696.95,306.54,-229.004,-170.410,-946.777,1.458,-1.939,3.603,36.450,-20.700,-9.600,0,0,0,163,45,5.27,0.10,0.01,0,
513746,20.63,97677,27.52,24.63,308.25,15.40,97697.28,306.51,-217.285,-102.539,-950.684,-1.885,1.160,0.992,37.350,-19.800,-9.300,0,0,0,154,46,5.37,0.10,0.01,0,
515141,20.64,97677,27.49,24.74,308.25,15.38,97697.21,306.51,-164.551,-84.473,-848.633,-4.137,-15.313,-3.611,35.550,-21.000,-9.000,0,0,0,107,46,5.36,0.10,0.01,0,
516525,20.65,97676,27.47,24.76,308.33,15.37,97697.14,306.52,-222.656,-29.297,-955.566,-6.000,9.595,-5.351,36.600,-19.800,-11.250,0,0,0,304,47,5.46,0.10,0.02,0,
517908,20.67,97676,27.45,24.66,308.33,15.36,97696.89,306.54,16.602,68.848,-886.719,-9.328,7.214,-2.641,31.950,-18.450,-13.500,0,0,0,143,47,5.45,0.10,0.01,0,
519296,20.68,97675,27.43,24.71,308.42,15.35,97697.00,306.53,-119.141,-49.805,-983.398,-4.542,10.679,-0.122,32.850,-17.850,-14.850,0,0,0,175,47,5.43,0.10,0.01,0,
520680,20.69,97676,27.41,24.55,308.33,15.34,97696.61,306.57,-118.164,-3.906,-1043.457,8.870,-5.351,4.550,31.800,-18.600,-13.800,0,0,0,176,47,5.42,0.10,0.01,0,
522066,20.70,97677,27.39,24.67,308.16,15.34,97696.85,306.55,-173.828,-71.289,-938.476,5.519,-16.763,-19.824,32.850,-21.000,-12.600,0,0,0,282,47,5.40,0.10,0.01,0,
523453,20.71,97679,27.36,24.63,308.16,15.33,97696.92,306.54,-296.387,-121.582,-983.887,39.794,-21.626,-6.763,27.150,-23.400,-13.950,0,0,0,0,47,5.39,0.10,0.01,0,
524836,20.73,97677,27.33,24.64,308.25,15.33,97697.25,306.51,-137.207,-53.711,-916.504,-48.336,32.588,18.374,34.500,-12.300,-12.450,0,0,0,154,47,5.38,0.10,0.01,0,
526220,20.74,97677,27.32,24.71,308.16,15.32,97697.50,306.49,-106.445,-86.426,-1010.742,-0.595,-1.573,-1.847,32.550,-14.850,-12.600,0,0,0,407,47,5.36,0.10,0.01,0,
527606,20.75,97678,27.29,24.71,308.25,15.32,97697.58,306.48,-77.148,25.391,-1031.738,-4.649,8.038,21.863,31.650,-13.050,-15.000,0,0,0,350,47,5.35,0.10,0.01,0,
528990,20.76,97677,27.27,24.71,308.25,15.32,97697.58,306.48,-66.406,68.359,-1038.574,6.779,-8.198,-19.534,30.150,-12.750,-14.700,0,0,0,378,47,5.33,0.10,0.01,0,
530373,20.78,97677,27.26,24.67,308.25,15.32,97697.50,306.49,-174.316,-64.453,-985.840,1.160,-6.191,3.573,34.500,-13.800,-13.200,0,0,0,716,47,5.32,0.10,0.01,0,
531757,20.79,97676,27.25,24.66,308.25,15.32,97697.11,306.52,-95.703,-56.641,-1029.785,-6.290,0.763,-6.824,33.000,-11.550,-14.250,0,0,0,298,47,5.31,0.10,0.01,0,
533144,20.80,97676,27.24,24.77,308.33,15.33,97697.01,306.53,-113.281,-43.457,-1020.508,-2.824,0.748,-2.931,32.850,-12.150,-13.800,0,0,0,700,47,5.29,0.10,0.01,0,
534528,20.81,97676,27.23,24.69,308.33,15.33,97696.86,306.55,-108.398,-23.926,-997.559,-1.626,-0.832,-9.107,34.200,-11.250,-14.250,0,0,0,612,47,5.28,0.10,0.01,0,
535911,20.83,97676,27.22,24.69,308.33,15.34,97696.94,306.54,-101.074,-73.242,-936.523,-0.565,5.000,-7.229,32.550,-13.650,-15.600,0,0,0,499,48,5.38,0.10,0.01,0,
537298,20.84,97675,27.21,24.70,308.33,15.35,97697.00,306.53,74.219,-58.105,-875.488,-9.985,-1.817,12.458,28.200,-14.250,-16.800,0,0,0,664,48,5.36,0.10,0.01,0,
538682,20.85,97675,27.19,24.64,308.42,15.35,97697.14,306.52,-21.973,-33.691,-953.613,-11.573,10.786,-7.504,32.700,-13.050,-14.250,0,0,0,377,48,5.35,0.10,0.01,0,
540065,20.86,97676,27.17,24.64,308.33,15.36,97696.89,306.54,0.488,40.039,-916.992,-1.611,4.046,-18.908,25.500,-20.100,-19.200,0,0,0,56,48,5.34,0.10,0.01,0,
541451,20.87,97676,27.16,24.63,308.33,15.37,97696.97,306.54,-43.945,-16.602,-990.234,0.809,0.817,9.588,27.300,-22.050,-16.200,0,0,0,255,48,5.32,0.10,0.01,0,
542834,20.88,97675,27.13,24.69,308.33,15.38,97697.13,306.52,-63.965,-51.270,-978.516,-3.168,13.580,8.321,29.550,-19.050,-14.850,0,0,0,454,49,5.42,0.10,0.01,0,
544218,20.89,97676,27.13,24.71,308.25,15.38,97697.52,306.49,7.812,-50.293,-1008.789,-0.405,10.443,3.275,32.400,-18.450,-15.300,0,0,0,341,50,5.52,0.10,0.01,0,
545604,20.90,97676,27.12,24.67,308.33,15.39,97697.11,306.52,465.332,-204.590,-864.746,18.214,34.656,-11.214,12.000,-20.400,-21.150,0,0,0,480,50,5.50,0.10,0.01,0,
546988,20.92,97676,27.10,24.70,308.25,15.40,97700.09,306.27,-585.937,-71.777,-940.918,-6.473,-32.000,3.069,44.400,-11.400,0.300,0,0,0,213,50,5.49,0.10,0.01,0,
548371,20.93,97676,27.09,24.58,308.25,15.44,97702.37,306.07,-174.316,-225.586,-975.098,-8.046,12.954,-3.351,36.450,-19.950,-8.100,0,0,0,175,51,5.58,0.11,0.01,0,
549765,20.94,97676,27.08,24.66,308.33,15.48,97706.29,305.74,-413.086,-267.578,-802.734,18.618,11.809,-6.053,43.500,-17.250,-0.900,0,0,0,349,51,5.57,0.11,0.01,0,
551148,20.95,97676,27.06,24.64,308.33,15.53,97705.35,305.82,-74.707,-87.402,-973.144,-12.145,-2.237,-4.038,29.550,-10.200,-17.400,0,0,0,90,51,5.55,0.10,0.01,0,
552531,20.96,97675,27.05,24.69,308.42,15.56,97704.75,305.87,-161.133,-369.141,-894.043,61.992,-39.809,10.344,33.750,-19.950,-9.150,0,0,0,423,51,5.54,0.10,0.01,0,
553915,20.97,97676,27.04,24.66,308.33,15.59,97704.00,305.93,-226.562,-500.000,-749.512,0.076,9.656,-17.611,37.500,-28.800,-4.050,0,0,0,120,51,5.53,0.10,0.01,0,
555303,20.98,97675,27.03,24.63,308.42,15.61,97703.89,305.94,-109.375,121.582,-1040.527,-38.908,-5.061,-16.038,35.250,-2.400,-14.250,0,0,0,79,51,5.51,0.10,0.01,0,
556686,21.00,97676,27.02,24.67,308.33,15.63,97704.20,305.92,-175.781,239.258,-781.250,24.969,28.107,-1.550,40.650,-4.500,-5.400,0,0,0,181,51,5.50,0.10,0.01,0,
558071,21.01,97678,27.01,24.70,307.99,15.66,97709.16,305.49,0.000,11.719,-1000.000,1.656,1.809,-0.809,30.150,-4.350,-17.250,0,0,0,262,51,5.49,0.10,0.01,0,
559460,21.02,97684,27.01,24.64,307.65,15.72,97714.96,304.99,-8.301,14.160,-982.910,-1.710,3.809,-1.855,27.900,-5.850,-16.800,0,0,0,352,51,5.47,0.10,0.01,0,
560842,21.03,97685,27.00,24.58,307.48,15.76,97717.55,304.77,-7.812,17.090,-987.793,2.809,0.344,4.137,29.700,-4.350,-16.500,0,0,0,336,51,5.46,0.10,0.01,0,
562226,21.04,97686,26.98,24.63,307.39,15.83,97721.09,304.47,-15.625,21.973,-998.535,-4.489,1.641,-2.168,29.550,-7.500,-16.650,0,0,0,301,51,5.45,0.10,0.01,0,
563612,21.05,97687,26.98,24.63,307.48,15.91,97724.32,304.19,-20.020,10.254,-986.816,0.252,-0.115,2.229,29.850,-6.450,-17.400,0,0,0,270,51,5.43,0.10,0.01,0,
564996,21.06,97686,26.95,24.61,307.48,15.96,97723.22,304.28,-7.812,12.207,-995.117,0.962,1.328,1.282,30.150,-5.100,-17.250,0,0,0,250,51,5.42,0.10,0.01,0,
566379,21.08,97686,26.95,24.60,307.48,16.00,97721.54,304.43,3.906,18.066,-997.559,-3.557,5.489,1.198,30.450,-5.400,-15.750,0,0,0,238,51,5.41,0.10,0.01,0,
567764,21.09,97686,26.95,24.58,307.48,16.05,97724.46,304.18,-4.395,8.301,-999.023,-1.267,2.382,-1.122,29.850,-4.950,-15.600,0,0,0,228,51,5.39,0.10,0.01,0,
569148,21.10,97685,26.94,24.60,307.56,16.11,97727.28,303.94,-6.348,16.113,-990.234,-3.115,1.969,-0.763,30.450,-6.300,-17.250,0,0,0,221,51,5.38,0.10,0.01,0,
570531,21.11,97686,26.95,24.55,307.39,16.16,97728.69,303.82,-9.277,14.648,-994.141,2.305,0.229,-3.061,29.700,-5.100,-17.250,0,0,0,219,51,5.37,0.10,0.01,0,
571915,21.12,97687,26.94,24.54,307.48,16.21,97730.32,303.68,0.977,24.414,-994.629,-2.168,2.901,0.336,28.650,-5.100,-16.800,0,0,0,217,51,5.35,0.10,0.01,0,
573301,21.13,97687,26.94,24.53,307.39,16.25,97730.73,303.64,-7.812,12.695,-996.094,1.634,0.954,1.748,30.600,-4.950,-16.650,0,0,0,217,52,5.44,0.10,0.01,0,
574685,21.14,97688,26.94,24.55,307.30,16.27,97730.41,303.67,0.000,9.766,-999.512,1.504,1.290,1.519,28.800,-5.700,-16.950,0,0,0,214,52,5.43,0.10,0.01,0,
576068,21.15,97688,26.93,24.48,307.30,16.28,97730.08,303.70,9.766,17.090,-992.187,0.718,-0.649,2.405,29.400,-6.300,-16.050,0,0,0,213,52,5.42,0.10,0.01,0,
577456,21.16,97688,26.94,24.54,307.30,16.31,97731.43,303.58,-4.395,3.418,-1001.465,-1.588,3.015,-0.656,28.800,-6.000,-15.150,0,0,0,210,52,5.41,0.10,0.01,0,
578839,21.18,97688,26.95,24.50,307.39,16.33,97731.22,303.60,-0.488,16.602,-974.121,0.634,3.038,0.298,29.400,-7.050,-17.250,0,0,0,210,52,5.39,0.10,0.01,0,
580221,21.19,97687,26.95,24.50,307.39,16.34,97730.50,303.66,-6.348,7.812,-985.351,1.550,0.542,-2.061,28.650,-6.300,-17.250,0,0,0,209,52,5.38,0.10,0.01,0,
581606,21.20,97688,26.95,24.48,307.30,16.35,97730.49,303.66,-9.766,20.020,-1000.976,1.939,0.435,0.328,29.400,-6.600,-15.000,0,0,0,208,52,5.37,0.10,0.01,0,
582989,21.21,97687,26.97,24.45,307.39,16.36,97730.48,303.66,-6.348,10.742,-1002.441,-1.771,2.420,-4.107,30.300,-4.950,-16.650,0,0,0,209,53,5.46,0.10,0.01,0,
584372,21.22,97689,26.95,24.43,307.30,16.35,97729.92,303.71,-4.395,6.836,-979.980,1.557,-0.916,-0.573,30.150,-5.850,-16.500,0,0,0,208,53,5.44,0.10,0.01,0,
585753,21.23,97689,26.95,24.43,307.22,16.36,97730.70,303.64,-12.695,20.508,-989.746,0.855,1.458,-0.023,30.300,-6.750,-15.150,0,0,0,208,53,5.43,0.10,0.01,0,
587141,21.24,97688,26.96,24.45,307.30,16.38,97731.32,303.59,-20.508,18.555,-995.117,1.718,1.496,-1.252,28.200,-6.300,-16.800,0,0,0,207,53,5.42,0.10,0.01,1,
588524,21.25,97689,26.95,24.48,307.22,16.40,97732.52,303.49,-1.465,3.418,-989.258,-2.298,2.107,0.748,29.250,-6.450,-17.700,0,0,0,207,53,5.41,0.10,0.01,0,
589907,21.26,97689,26.94,24.44,307.30,16.42,97733.46,303.41,0.488,6.348,-999.512,0.573,0.702,-0.229,31.200,-5.400,-16.500,0,0,0,206,53,5.39,0.10,0.01,0,
591295,21.27,97688,26.93,24.43,307.30,16.45,97733.59,303.40,0.977,18.555,-991.211,0.618,1.061,2.015,29.550,-7.200,-16.650,0,0,0,206,53,5.38,0.10,0.01,0,
592680,21.28,97688,26.91,24.47,307.30,16.47,97734.60,303.31,-16.113,7.812,-1005.371,1.183,-1.260,2.405,30.450,-6.600,-16.800,0,0,0,207,53,5.37,0.10,0.01,0,
594066,21.29,97689,26.90,24.48,307.30,16.49,97734.08,303.35,-4.395,14.648,-993.164,-0.985,1.969,-2.763,29.250,-6.450,-15.900,0,0,0,207,53,5.36,0.10,0.01,0,
595452,21.30,97688,26.87,24.45,307.30,16.51,97733.00,303.45,-7.812,11.230,-989.746,-0.137,2.107,-0.733,30.150,-4.650,-16.050,0,0,0,207,53,5.34,0.10,0.01,0,
596836,21.31,97688,26.84,24.50,307.30,16.52,97733.23,303.43,0.977,9.277,-996.094,0.962,-0.031,1.107,29.700,-5.850,-16.500,0,0,0,207,53,5.33,0.10,0.01,0,
598218,21.32,97688,26.82,24.55,307.30,16.55,97734.40,303.33,-7.324,15.625,-997.559,0.817,-0.595,-0.542,28.950,-5.100,-15.000,0,0,0,207,53,5.32,0.10,0.01,0,
599605,21.33,97688,26.78,24.54,307.30,16.56,97733.19,303.43,-0.488,4.395,-994.629,2.023,-0.115,-1.168,30.900,-4.350,-15.750,0,0,0,207,53,5.31,0.10,0.01,0,
600988,21.34,97689,26.75,24.53,307.30,16.55,97729.41,303.75,-1.953,9.766,-989.746,3.046,1.214,2.008,28.650,-4.350,-16.500,0,0,0,208,53,5.29,0.10,0.01,0,
602372,21.36,97688,26.72,24.54,307.22,16.53,97727.50,303.92,-18.066,14.648,-995.605,-0.908,2.679,-2.656,28.950,-5.850,-17.250,0,0,0,200,53,5.28,0.10,0.01,0,
603755,21.37,97688,26.68,24.64,307.30,16.52,97725.36,304.10,3.418,18.555,-996.582,-1.328,4.947,-3.260,29.250,-5.700,-16.950,0,0,0,208,53,5.27,0.10,0.01,0,
605142,21.37,97689,26.66,24.57,307.22,16.50,97723.03,304.30,2.930,-0.488,-990.723,-0.565,1.420,-1.718,29.700,-5.850,-17.250,0,0,0,207,53,5.26,0.10,0.01,0,
606525,21.38,97689,26.62,24.61,307.22,16.46,97720.77,304.50,-2.441,22.461,-988.281,-3.092,4.695,-0.237,30.150,-6.600,-16.050,0,0,0,207,54,5.34,0.10,0.01,0,
607906,21.40,97689,26.59,24.63,307.22,16.43,97719.83,304.57,-8.301,10.254,-979.980,-1.183,4.084,-0.840,28.200,-4.650,-16.050,0,0,0,208,54,5.33,0.10,0.01,0,
609294,21.41,97689,26.56,24.60,307.30,16.40,97718.74,304.67,-4.395,0.977,-996.094,-1.061,1.695,-1.183,30.300,-5.700,-16.950,0,0,0,207,54,5.32,0.10,0.01,0,
610677,21.42,97688,26.54,24.66,307.30,16.36,97717.75,304.75,-1.465,5.371,-985.840,2.031,1.626,0.947,29.850,-7.200,-16.950,0,0,0,207,54,5.31,0.10,0.01,0,
612061,21.43,97689,26.51,24.63,307.22,16.33,97717.41,304.78,-10.254,17.090,-993.164,-2.275,3.076,-3.023,29.700,-5.850,-15.750,0,0,0,206,54,5.30,0.10,0.01,0,
613452,21.43,97689,26.47,24.61,307.22,16.30,97717.01,304.82,-9.277,16.602,-987.793,0.824,3.634,-0.496,28.800,-5.250,-15.600,0,0,0,207,54,5.28,0.10,0.01,0,
614836,21.44,97689,26.45,24.63,307.22,16.26,97716.90,304.83,-15.137,8.789,-989.746,-1.115,3.863,-1.863,28.950,-8.550,-16.500,0,0,0,206,54,5.27,0.10,0.01,0,
616219,21.45,97689,26.43,24.66,307.30,16.22,97716.30,304.88,-15.137,9.277,-1004.394,-1.718,2.748,-0.107,29.400,-6.600,-17.550,0,0,0,206,54,5.26,0.10,0.01,0,
617605,21.46,97689,26.41,24.61,307.22,16.17,97716.69,304.84,-11.230,8.301,-995.117,1.282,0.519,-1.542,29.250,-6.450,-15.600,0,0,0,207,54,5.25,0.10,0.01,0,
618988,21.48,97691,26.39,24.60,307.13,16.14,97716.55,304.86,-2.441,13.184,-992.676,2.198,-1.458,1.847,30.450,-5.100,-16.800,0,0,0,206,54,5.24,0.10,0.01,0,
620371,21.48,97689,26.36,24.61,307.22,16.09,97716.71,304.84,-6.836,17.578,-994.141,2.405,0.748,-0.618,29.700,-5.400,-15.750,0,0,0,204,54,5.22,0.10,0.01,0,
621755,21.49,97688,26.35,24.60,307.30,16.04,97716.61,304.85,-10.742,8.789,-983.887,0.878,-0.313,1.527,30.450,-6.300,-15.600,0,0,0,204,55,5.31,0.10,0.01,0,
623150,21.50,97689,26.32,24.57,307.22,15.99,97717.85,304.74,-1.465,11.230,-998.535,-0.183,0.725,-0.183,30.450,-7.050,-15.750,0,0,0,206,55,5.30,0.10,0.01,0,
624533,21.51,97689,26.31,24.60,307.22,15.96,97717.91,304.74,-8.789,3.418,-996.094,0.885,1.115,0.069,29.550,-4.950,-15.900,0,0,0,209,55,5.29,0.10,0.01,0,
625916,21.52,97689,26.30,24.60,307.22,15.90,97717.64,304.76,-6.836,8.789,-995.605,-2.458,1.092,-3.099,28.500,-7.200,-17.400,0,0,0,210,55,5.27,0.10,0.01,0,
627303,21.53,97689,26.28,24.63,307.30,15.83,97718.76,304.67,-15.137,10.254,-1003.418,-1.511,2.863,-1.122,30.300,-4.950,-15.900,0,0,0,209,55,5.26,0.10,0.01,0,
628688,21.54,97688,26.26,24.60,307.22,15.80,97723.46,304.26,-9.766,13.184,-996.582,-1.466,1.198,-0.878,29.850,-5.700,-16.200,0,0,0,209,55,5.25,0.10,0.01,0,
630073,21.55,97689,26.24,24.64,307.22,15.78,97725.72,304.07,-13.672,6.836,-991.699,0.412,0.511,0.053,29.850,-6.000,-15.900,0,0,0,207,55,5.24,0.10,0.01,0,
631459,21.56,97688,26.22,24.71,307.22,15.78,97728.94,303.80,-17.090,8.789,-986.328,2.031,0.748,-1.466,29.400,-5.400,-17.550,0,0,0,207,55,5.23,0.10,0.01,0,
632843,21.57,97688,26.18,24.67,307.22,15.77,97731.05,303.61,-12.207,10.254,-988.769,-0.786,3.252,-1.069,29.850,-5.700,-16.950,0,0,0,207,55,5.22,0.10,0.01,0,
634226,21.58,97689,26.17,24.66,307.13,15.77,97732.33,303.50,-1.953,10.742,-990.723,1.962,-0.481,1.733,27.150,-5.850,-16.500,0,0,0,207,55,5.21,0.10,0.01,0,
635609,21.59,97690,26.15,24.69,307.13,15.78,97734.25,303.34,-13.672,7.812,-1003.418,0.305,0.115,0.031,27.750,-6.000,-16.200,0,0,0,207,55,5.19,0.10,0.01,0,
636996,21.60,97689,26.11,24.67,307.22,15.79,97736.08,303.18,-8.301,20.996,-984.863,-0.649,0.947,0.710,29.550,-6.000,-15.600,0,0,0,208,55,5.18,0.10,0.01,0,
638380,21.61,97689,26.11,24.69,307.22,15.80,97737.94,303.02,-3.906,12.695,-999.512,-0.374,-0.992,0.420,29.700,-5.100,-16.800,0,0,0,208,55,5.17,0.10,0.01,0,
639761,21.62,97689,26.08,24.76,307.22,15.82,97738.63,302.96,-10.254,8.301,-976.074,-2.214,1.130,-3.573,29.250,-6.000,-16.200,0,0,0,208,56,5.25,0.10,0.01,0,
641148,21.63,97688,26.06,24.69,307.22,15.85,97739.56,302.88,-7.812,12.695,-992.676,-2.847,4.641,-0.863,29.250,-6.000,-17.400,0,0,0,207,56,5.24,0.10,0.01,0,
642532,21.64,97688,26.04,24.71,307.30,15.89,97739.36,302.90,-2.441,11.719,-983.398,-2.237,2.275,-0.824,27.900,-5.400,-16.800,0,0,0,208,56,5.23,0.10,0.01,0,
643915,21.65,97689,26.00,24.74,307.22,15.94,97739.22,302.91,-21.484,6.348,-987.793,0.672,-0.282,0.870,29.700,-5.850,-15.750,0,0,0,208,56,5.22,0.10,0.01,0,
645301,21.66,97689,25.98,24.85,307.30,15.97,97739.13,302.92,-1.465,4.883,-984.375,-2.427,4.542,-5.305,30.450,-5.400,-16.500,0,0,0,207,56,5.21,0.10,0.01,0,
646684,21.67,97689,25.94,24.77,307.13,16.01,97739.71,302.87,-10.742,5.859,-1006.836,-0.382,1.160,-0.519,28.050,-4.950,-15.600,0,0,0,208,56,5.20,0.10,0.01,0,
648068,21.67,97690,25.92,24.82,307.22,16.06,97739.32,302.91,-13.672,16.113,-1003.418,0.595,-0.412,1.282,28.950,-5.850,-16.800,0,0,0,208,56,5.19,0.10,0.01,0,
649454,21.68,97689,25.88,24.77,307.22,16.10,97739.75,302.87,-4.883,23.437,-984.863,-2.405,3.053,-4.160,30.150,-5.850,-16.500,0,0,0,208,56,5.18,0.10,0.01,0,
650838,21.69,97689,25.86,24.76,307.22,16.13,97739.80,302.86,-0.977,11.230,-1004.394,-1.855,0.481,-3.779,30.300,-4.500,-15.900,0,0,0,207,56,5.16,0.10,0.01,0,
652221,21.70,97690,25.81,24.82,307.05,16.17,97739.67,302.87,-2.930,8.789,-1001.953,2.634,0.374,-0.206,29.250,-5.700,-15.150,0,0,0,203,56,5.15,0.10,0.01,0,
653604,21.71,97691,25.79,24.76,307.13,16.20,97739.63,302.88,-8.301,10.254,-992.187,0.214,0.099,1.885,29.850,-6.000,-15.150,0,0,0,198,56,5.14,0.10,0.01,0,
654989,21.72,97689,25.76,24.82,307.13,16.23,97738.89,302.94,-4.395,2.441,-978.516,0.870,1.321,2.573,28.500,-4.500,-15.150,0,0,0,202,57,5.22,0.10,0.01,0,
656372,21.73,97689,25.71,24.82,307.13,16.25,97739.21,302.92,-2.930,17.090,-995.117,2.000,0.962,1.649,29.850,-5.250,-16.650,0,0,0,204,57,5.21,0.10,0.01,0,
657756,21.74,97690,25.67,24.80,307.13,16.28,97739.64,302.88,9.766,12.207,-997.070,-0.107,2.649,-0.847,30.300,-4.200,-16.200,0,0,0,206,57,5.20,0.10,0.01,0,
659149,21.75,97690,25.64,24.80,307.05,16.33,97739.13,302.92,-12.207,6.836,-1008.789,-2.954,1.130,-0.588,30.900,-5.850,-16.050,0,0,0,211,57,5.19,0.10,0.01,0,
660533,21.76,97690,25.60,24.89,307.13,16.38,97739.13,302.92,-2.930,12.207,-986.328,-2.015,4.260,-0.313,28.650,-4.650,-16.500,0,0,0,209,57,5.18,0.10,0.01,0,
661915,21.77,97690,25.55,24.93,307.22,16.40,97739.66,302.88,-7.324,3.906,-992.187,-1.542,3.595,-4.771,28.800,-5.700,-16.950,0,0,0,208,58,5.26,0.10,0.01,0,
663302,21.77,97690,25.52,24.93,307.13,16.43,97739.38,302.90,-3.906,6.836,-998.047,1.046,1.046,-0.336,28.800,-6.450,-15.150,0,0,0,208,58,5.25,0.10,0.01,0,
664687,21.78,97689,25.49,24.89,307.22,16.46,97738.23,303.00,-7.812,14.648,-984.863,-1.573,2.550,-5.198,30.150,-5.850,-15.750,0,0,0,208,58,5.24,0.10,0.01,0,
666073,21.79,97690,25.45,24.89,307.13,16.49,97735.36,303.24,-5.371,9.277,-999.023,-0.206,1.977,-1.664,29.250,-5.700,-15.900,0,0,0,208,59,5.32,0.10,0.01,0,
667459,21.80,97689,25.43,24.91,307.22,16.52,97734.77,303.30,-13.184,8.301,-985.351,-0.603,4.779,-2.069,28.650,-5.100,-16.800,0,0,0,209,60,5.40,0.10,0.01,0,
668843,21.81,97690,25.40,24.88,307.13,16.55,97732.29,303.51,-3.906,9.766,-998.047,-0.931,3.359,-0.550,28.950,-5.100,-15.750,0,0,0,208,60,5.38,0.10,0.01,0,
670226,21.82,97690,25.36,24.89,307.22,16.57,97729.14,303.78,-6.836,12.695,-1008.789,-1.702,3.092,-0.092,29.250,-6.450,-16.650,0,0,0,208,60,5.37,0.10,0.01,0,
671609,21.83,97689,25.33,24.91,307.22,16.58,97726.69,303.99,-8.301,50.781,-1104.980,5.237,3.870,-0.412,28.650,-4.650,-15.300,0,0,0,202,60,5.36,0.10,0.01,0,
672997,21.84,97689,25.31,24.88,307.22,16.60,97724.03,304.22,-4.395,3.418,-993.652,2.603,0.267,0.985,29.250,-6.000,-17.700,0,0,0,154,60,5.35,0.10,0.01,0,
674379,21.85,97689,25.28,24.98,307.22,16.60,97722.02,304.39,-167.969,-14.160,-1032.227,-6.321,-6.176,8.893,29.400,-6.300,-15.750,0,0,0,118,60,5.34,0.10,0.01,0,
675764,21.86,97689,25.26,24.89,307.22,16.60,97720.08,304.55,47.363,-20.996,-986.328,2.435,2.840,-0.107,29.850,-4.950,-15.900,0,0,0,228,60,5.33,0.10,0.01,0,
677150,21.87,97689,25.24,24.91,307.13,16.60,97719.60,304.60,17.090,3.906,-990.723,-0.832,2.931,-2.656,30.450,-6.300,-15.300,0,0,0,710,60,5.32,0.10,0.01,0,
678532,21.88,97689,25.24,24.86,307.22,16.60,97717.92,304.74,7.812,0.488,-991.699,1.336,1.267,-0.580,27.900,-5.850,-15.750,0,0,0,706,60,5.31,0.10,0.01,0,
679915,21.89,97689,25.21,24.96,307.13,16.59,97716.49,304.86,13.184,-11.230,-1005.859,-0.473,4.885,-0.076,29.250,-4.950,-17.400,0,0,0,539,60,5.30,0.10,0.01,0,
681302,21.90,97689,25.19,24.96,307.22,16.59,97715.51,304.94,5.371,-1.465,-1000.976,3.313,-0.573,1.427,28.200,-7.050,-15.000,0,0,0,459,60,5.29,0.10,0.01,0,
682685,21.91,97689,25.17,24.86,307.13,16.58,97715.21,304.97,11.719,-2.930,-996.094,2.435,2.122,-0.626,29.400,-4.650,-16.800,0,0,0,381,60,5.28,0.10,0.01,0,
684068,21.92,97690,25.16,24.91,307.13,16.57,97714.89,305.00,6.836,-2.441,-1008.789,-1.336,3.710,2.359,31.200,-5.400,-16.050,0,0,0,316,60,5.26,0.10,0.01,0,
685452,21.92,97690,25.15,24.85,307.13,16.56,97714.11,305.07,13.672,-5.859,-998.047,-0.718,4.550,-1.328,28.950,-5.400,-15.750,0,0,0,273,60,5.25,0.10,0.01,0,
686837,21.93,97689,25.16,24.85,307.22,16.54,97713.81,305.09,15.625,0.488,-990.234,-2.733,4.473,-1.206,27.450,-4.350,-16.800,0,0,0,246,60,5.24,0.10,0.01,0,
688220,21.94,97689,25.15,24.86,307.13,16.52,97713.99,305.08,0.000,7.812,-988.281,-1.229,2.931,-0.351,29.850,-4.950,-15.900,0,0,0,234,60,5.23,0.10,0.01,0,
689603,21.95,97689,25.14,24.83,307.13,16.49,97713.58,305.11,0.977,0.000,-997.070,-1.977,3.878,-2.313,28.650,-5.850,-16.800,0,0,0,225,60,5.22,0.10,0.01,0,
690991,21.96,97689,25.12,24.71,307.22,16.45,97713.13,305.15,15.625,-8.301,-999.512,-2.473,5.221,-2.366,27.900,-4.650,-17.250,0,0,0,219,60,5.21,0.10,0.01,0,
692374,21.97,97689,25.13,24.77,307.22,16.41,97713.35,305.13,10.254,-8.301,-995.605,0.435,-0.969,-2.031,27.900,-5.850,-17.550,0,0,0,217,61,5.29,0.10,0.01,0,
693757,21.98,97690,25.11,24.83,307.13,16.39,97713.06,305.16,9.277,3.418,-987.305,-2.733,2.863,0.328,29.250,-4.950,-17.700,0,0,0,214,61,5.28,0.10,0.01,0,
695152,21.99,97690,25.10,24.77,307.13,16.35,97712.93,305.17,25.391,-2.930,-991.699,-2.565,3.649,-2.725,29.250,-6.000,-16.200,0,0,0,211,61,5.27,0.10,0.01,0,
696536,22.00,97690,25.09,24.76,307.05,16.33,97715.30,304.96,12.207,5.859,-978.027,-1.756,2.359,-2.916,28.500,-5.250,-16.650,0,0,0,210,61,5.26,0.10,0.01,0,
697919,22.01,97690,25.08,24.93,307.13,16.31,97714.78,305.01,6.348,-19.043,-994.629,-0.137,1.824,1.214,28.650,-4.650,-16.800,0,0,0,212,61,5.25,0.10,0.01,0,
699304,22.02,97690,25.07,24.82,307.13,16.29,97714.41,305.04,15.137,-1.465,-979.004,-1.496,1.771,-1.000,28.650,-4.350,-17.850,0,0,0,208,62,5.32,0.10,0.01,0,
700690,22.03,97690,25.06,24.79,307.05,16.25,97714.21,305.06,19.043,-3.906,-999.023,-3.282,1.359,-0.977,28.950,-5.100,-15.300,0,0,0,202,62,5.31,0.10,0.01,0,
702074,22.04,97690,25.05,24.77,307.05,16.21,97713.33,305.13,-6.836,4.395,-1004.394,1.031,-1.458,1.336,28.800,-4.500,-17.400,0,0,0,70,62,5.30,0.10,0.01,0,
703457,22.05,97691,25.04,24.95,307.05,16.18,97713.44,305.12,54.199,-102.539,-968.262,9.550,3.130,-5.298,28.200,-6.600,-16.800,0,0,0,141,62,5.29,0.10,0.01,0,
704844,22.05,97691,25.02,24.77,307.13,16.15,97716.29,304.88,5.859,6.348,-991.699,-2.649,2.038,-3.000,28.650,-4.650,-16.500,0,0,0,123,62,5.28,0.10,0.01,0,
706228,22.06,97690,25.01,24.92,307.13,16.14,97718.74,304.67,-17.578,45.898,-1001.953,2.450,5.412,3.198,30.900,-4.650,-15.300,0,0,0,96,62,5.27,0.10,0.01,0,
707611,22.07,97690,24.99,24.70,307.13,16.12,97717.00,304.82,-15.625,12.207,-992.676,2.954,2.832,5.298,29.400,-5.850,-16.500,0,0,0,140,62,5.26,0.10,0.01,0,
708999,22.08,97689,24.98,24.80,307.13,16.10,97715.47,304.95,55.664,-1.953,-985.351,0.260,2.802,-12.634,28.800,-5.700,-16.200,0,0,0,107,62,5.25,0.10,0.01,0,
710382,22.09,97690,24.97,24.80,307.13,16.09,97716.13,304.89,-97.656,84.473,-974.121,3.908,3.229,4.885,29.700,-2.400,-15.300,0,0,0,115,62,5.24,0.10,0.01,0,
711764,22.10,97690,24.95,24.83,307.13,16.07,97716.80,304.84,7.324,6.348,-1118.652,32.771,-37.282,-8.618,29.400,-5.850,-16.500,0,0,0,124,62,5.23,0.10,0.01,0,
713151,22.11,97689,24.95,24.82,307.30,16.03,97718.05,304.73,-21.973,-21.973,-797.851,6.183,-5.328,-0.435,30.600,-9.450,-14.850,0,0,0,167,62,5.22,0.10,0.01,0,
714534,22.12,97689,24.93,24.77,307.22,16.02,97721.69,304.42,13.672,-54.199,-997.070,-1.779,4.107,-0.336,28.950,-10.800,-17.250,0,0,0,294,62,5.21,0.10,0.01,0,
715918,22.13,97689,24.92,24.95,307.22,16.02,97725.86,304.06,7.812,-48.340,-996.582,1.397,-0.298,1.084,29.400,-9.600,-15.750,0,0,0,274,62,5.20,0.10,0.01,0,
717302,22.14,97689,24.90,24.95,307.22,16.00,97730.01,303.70,-1.953,-60.547,-989.258,-0.863,5.565,0.267,27.900,-9.600,-16.500,0,0,0,248,62,5.19,0.10,0.01,0,
718686,22.15,97690,24.88,24.77,307.13,15.98,97732.83,303.46,7.812,-50.781,-996.582,-1.893,2.939,-0.870,29.850,-10.650,-15.900,0,0,0,233,62,5.18,0.10,0.01,0,
720069,22.15,97690,24.86,24.93,307.13,15.97,97734.53,303.31,1.465,-50.293,-991.211,1.565,-0.763,2.359,28.800,-10.200,-16.950,0,0,0,224,62,5.17,0.10,0.01,0,
721453,22.17,97690,24.84,24.95,307.13,15.96,97736.71,303.13,7.812,-37.598,-987.305,-1.511,2.481,-3.328,27.750,-9.900,-16.950,0,0,0,219,62,5.16,0.10,0.01,0,
722838,22.17,97691,24.81,24.82,307.13,15.95,97738.10,303.01,-2.441,-59.082,-1002.930,-0.076,3.412,0.992,28.950,-10.500,-17.250,0,0,0,216,62,5.15,0.10,0.01,0,
724221,22.18,97690,24.81,24.89,307.13,15.94,97739.47,302.89,5.371,-51.758,-994.629,1.351,0.153,-1.244,29.400,-10.050,-16.500,0,0,0,213,64,5.30,0.10,0.01,0,
725605,22.19,97691,24.77,24.91,307.05,15.94,97739.85,302.86,13.184,-66.406,-989.258,0.641,0.641,-1.397,29.850,-9.450,-17.400,0,0,0,212,64,5.29,0.10,0.01,0,
726991,22.20,97690,24.75,24.91,307.13,15.96,97739.29,302.91,5.859,-50.293,-985.351,-1.519,3.198,2.229,29.550,-10.200,-15.600,0,0,0,212,64,5.28,0.10,0.01,0,
728375,22.21,97689,24.71,25.10,307.13,15.95,97735.53,303.23,9.277,-56.641,-992.187,-1.099,2.756,0.160,27.300,-9.900,-17.400,0,0,0,213,64,5.27,0.10,0.01,0,
729758,22.21,97691,24.70,25.04,307.13,15.93,97733.21,303.51,4.883,-48.828,-991.211,-1.672,4.244,-3.443,28.500,-9.150,-15.150,0,0,0,212,64,5.26,0.10,0.01,0,
731152,22.22,97691,24.66,25.04,307.05,15.90,97730.27,303.68,1.953,-57.129,-1000.000,-0.099,0.275,2.214,29.550,-9.900,-15.600,0,0,0,212,64,5.25,0.10,0.01,0,
732535,22.23,97690,24.63,25.08,307.13,15.86,97727.99,303.88,7.812,-46.875,-998.047,-0.290,4.214,-1.893,29.850,-9.900,-17.400,0,0,0,214,64,5.24,0.10,0.01,0,
733919,22.24,97690,24.59,24.98,307.13,15.81,97726.02,304.04,5.371,-44.434,-984.375,-1.939,3.893,-2.130,28.050,-10.950,-15.900,0,0,0,211,64,5.23,0.10,0.01,0,
735304,22.25,97690,24.57,25.11,307.13,15.77,97724.37,304.19,6.348,-46.387,-989.746,0.031,1.229,-1.756,28.650,-10.800,-17.250,0,0,0,212,64,5.22,0.10,0.01,0,
736691,22.26,97690,24.54,25.13,307.13,15.70,97723.40,304.27,12.207,-59.082,-993.652,-2.954,2.527,-1.847,28.800,-9.450,-15.900,0,0,0,211,64,5.21,0.10,0.01,0,
738076,22.26,97690,24.54,24.93,307.05,15.61,97723.66,304.25,11.230,-49.316,-1006.836,-2.374,4.412,-2.267,28.800,-10.950,-16.650,0,0,0,211,64,5.20,0.10,0.01,0,
739460,22.27,97690,24.51,25.01,307.05,15.55,97726.07,304.04,24.902,-47.852,-995.605,-2.634,3.817,-2.985,28.950,-10.050,-17.250,0,0,0,211,64,5.19,0.10,0.01,0,
740846,22.28,97691,24.50,25.17,307.05,15.50,97725.19,304.12,7.324,-44.922,-984.863,-1.053,2.435,0.611,27.450,-10.500,-16.500,0,0,0,212,64,5.19,0.10,0.01,0,
742230,22.29,97690,24.46,25.10,307.05,15.43,97723.52,304.26,13.672,-38.574,-991.211,0.412,-0.840,1.901,28.800,-8.700,-16.200,0,0,0,212,65,5.26,0.10,0.01,0,
743612,22.30,97691,24.43,25.07,307.05,15.37,97722.21,304.37,4.395,-51.758,-994.629,3.405,1.275,-0.466,28.800,-10.200,-16.200,0,0,0,210,66,5.33,0.10,0.01,0,
744997,22.30,97690,24.42,25.10,307.13,15.34,97721.42,304.44,16.602,-51.758,-1003.418,-0.053,0.244,3.053,29.250,-9.150,-18.150,0,0,0,211,66,5.32,0.10,0.01,0,
746381,22.31,97690,24.40,25.04,307.13,15.31,97720.91,304.48,10.742,-55.176,-994.629,-1.885,4.580,-2.359,29.850,-10.200,-16.200,0,0,0,210,67,5.39,0.10,0.01,0,
747764,22.32,97689,24.35,25.19,307.13,15.27,97720.78,304.49,5.371,-45.898,-991.211,2.695,0.336,-0.321,28.800,-10.200,-16.650,0,0,0,210,67,5.38,0.10,0.01,0,
749151,22.33,97690,24.32,25.30,307.13,15.24,97720.73,304.50,3.418,-56.152,-995.117,0.313,-0.038,1.947,29.850,-10.200,-15.600,0,0,0,210,67,5.37,0.10,0.01,0,
750534,22.34,97689,24.30,25.28,307.13,15.19,97720.64,304.51,8.789,-49.805,-993.164,-0.435,2.260,-2.779,28.800,-10.950,-17.700,0,0,0,210,67,5.36,0.10,0.01,0,
751918,22.35,97690,24.28,25.25,307.13,15.17,97720.36,304.53,10.742,-43.457,-987.305,1.611,0.061,-1.282,29.700,-10.500,-16.500,0,0,0,211,68,5.43,0.10,0.01,0,
753304,22.35,97690,24.24,25.23,307.22,15.13,97719.66,304.59,18.555,-57.617,-987.793,0.504,0.817,1.099,28.200,-10.800,-16.050,0,0,0,210,68,5.42,0.10,0.01,0,
754688,22.36,97689,24.22,25.22,307.22,15.10,97719.92,304.57,8.789,-54.687,-994.629,-2.397,1.939,-1.664,28.200,-11.250,-16.800,0,0,0,211,68,5.41,0.10,0.01,0,
756071,22.37,97689,24.17,25.22,307.22,15.09,97725.07,304.13,7.812,-44.434,-984.863,1.489,1.076,0.076,28.650,-8.550,-18.300,0,0,0,212,68,5.40,0.10,0.01,0,
757453,22.38,97688,24.16,25.33,307.22,15.10,97727.79,303.89,10.254,-54.687,-1013.184,-1.145,1.916,-1.099,28.800,-9.150,-16.950,0,0,0,213,68,5.39,0.10,0.01,0,
758842,22.39,97689,24.13,25.33,307.22,15.12,97731.22,303.60,-0.977,-57.129,-986.816,1.344,-0.824,0.901,28.950,-10.500,-16.800,0,0,0,213,68,5.38,0.10,0.01,0,
760225,22.39,97690,24.10,25.25,307.22,15.16,97734.24,303.34,6.348,-51.758,-996.582,3.496,-0.046,0.511,28.950,-9.600,-15.000,0,0,0,211,69,5.45,0.10,0.01,0,
761608,22.40,97689,24.08,25.25,307.22,15.19,97732.19,303.52,18.555,-57.617,-991.211,-1.939,2.740,-2.916,29.400,-9.600,-15.750,0,0,0,214,69,5.44,0.10,0.01,0,
762993,22.41,97689,24.05,25.27,307.13,15.22,97730.53,303.66,7.812,-63.477,-986.816,-3.588,1.992,-0.366,28.500,-10.200,-16.650,0,0,0,213,69,5.43,0.10,0.01,0,
764377,22.42,97689,24.03,25.34,307.22,15.24,97728.44,303.84,7.812,-47.363,-994.141,-1.130,2.901,-1.427,28.950,-9.600,-15.750,0,0,0,210,69,5.42,0.10,0.01,0,
765760,22.43,97689,24.02,25.33,307.13,15.24,97726.58,304.00,17.090,-55.664,-993.164,3.237,-1.924,-2.176,28.200,-9.300,-16.500,0,0,0,210,69,5.41,0.10,0.01,0,
767154,22.43,97689,23.98,25.30,307.13,15.25,97725.28,304.11,12.695,-56.152,-986.328,0.702,0.565,0.053,29.850,-9.450,-16.650,0,0,0,208,69,5.40,0.10,0.01,0,
768537,22.44,97690,23.97,25.39,307.13,15.26,97723.27,304.28,9.277,-50.293,-995.605,2.115,-1.374,-1.786,29.250,-9.150,-17.700,0,0,0,209,69,5.39,0.10,0.01,0,
769921,22.45,97689,23.95,25.34,307.13,15.26,97722.53,304.34,9.766,-53.223,-996.094,-1.046,2.595,-3.924,30.300,-8.400,-15.600,0,0,0,210,69,5.38,0.10,0.01,0,
771307,22.46,97690,23.93,25.39,307.13,15.27,97721.66,304.42,6.348,-61.035,-985.351,1.565,0.985,3.565,28.950,-9.300,-16.500,0,0,0,211,70,5.45,0.10,0.01,0,
772695,22.47,97690,23.92,25.42,307.13,15.27,97721.17,304.46,7.324,-60.059,-1001.465,2.450,1.611,-2.275,30.600,-9.450,-16.950,0,0,0,211,70,5.44,0.10,0.01,0,
774078,22.48,97689,23.91,25.39,307.22,15.27,97721.10,304.47,2.930,-54.199,-997.070,-2.206,2.092,-1.481,29.400,-9.600,-16.800,0,0,0,212,71,5.51,0.10,0.01,0,
775461,22.48,97689,23.89,25.37,307.30,15.27,97720.94,304.48,19.531,-52.734,-991.699,-1.817,2.969,-4.504,28.800,-10.950,-15.150,0,0,0,212,71,5.50,0.10,0.01,0,
776849,22.49,97688,23.88,25.40,307.22,15.26,97720.46,304.52,0.977,-47.363,-1000.488,-1.466,3.855,-0.649,29.700,-9.300,-15.750,0,0,0,212,71,5.49,0.10,0.01,0,
778232,22.50,97690,23.88,25.34,307.22,15.25,97720.28,304.54,0.977,-59.082,-982.910,2.740,0.061,-0.229,29.400,-11.250,-16.500,0,0,0,212,71,5.48,0.10,0.01,0,
779616,22.51,97689,23.86,25.30,307.22,15.25,97720.14,304.55,11.230,-45.410,-987.305,1.969,-0.794,-1.687,29.850,-12.600,-16.650,0,0,0,211,71,5.47,0.10,0.01,0,
781003,22.52,97688,23.86,25.40,307.22,15.24,97720.00,304.56,6.836,-54.687,-984.375,-1.000,3.000,-2.679,28.500,-9.450,-18.150,0,0,0,212,71,5.46,0.10,0.01,0,
782387,22.53,97689,23.85,25.39,307.22,15.24,97719.50,304.60,2.930,-55.176,-996.094,-0.817,0.679,0.122,28.500,-10.950,-16.650,0,0,0,213,71,5.45,0.10,0.01,0,
783770,22.54,97689,23.85,25.31,307.22,15.24,97719.28,304.62,1.465,-49.805,-999.512,2.015,2.351,-0.290,28.650,-10.050,-15.750,0,0,0,214,71,5.44,0.10,0.01,0,
785156,22.54,97689,23.84,25.16,307.13,15.23,97719.03,304.64,7.812,-53.711,-978.516,1.275,-0.015,-0.679,28.050,-10.200,-16.950,0,0,0,213,71,5.43,0.10,0.01,0,
786539,22.55,97689,23.84,25.31,307.22,15.24,97719.28,304.62,-15.137,-43.457,-981.934,0.641,2.557,0.733,30.150,-8.850,-14.700,0,0,0,212,71,5.42,0.10,0.01,0,
787923,22.56,97689,23.82,25.39,307.22,15.23,97719.52,304.60,15.137,-49.805,-991.699,-1.252,2.229,-2.053,28.950,-10.500,-16.500,0,0,0,211,71,5.41,0.10,0.01,0,
789309,22.57,97689,23.81,25.40,307.30,15.23,97719.42,304.61,-0.977,-52.734,-993.164,-1.733,4.023,-1.145,29.700,-10.500,-16.800,0,0,0,213,71,5.40,0.10,0.01,0,
790692,22.58,97688,23.81,25.50,307.30,15.22,97719.52,304.60,-0.488,-63.965,-988.769,1.427,-0.611,-0.618,28.500,-11.400,-17.700,0,0,0,212,71,5.39,0.10,0.01,0,
792076,22.59,97688,23.80,25.34,307.22,15.22,97719.60,304.59,-0.977,-55.176,-995.117,-2.557,4.366,-3.305,27.750,-10.200,-16.650,0,0,0,211,71,5.38,0.10,0.01,0,
793459,22.60,97689,23.80,25.48,307.30,15.21,97720.32,304.53,10.254,-57.129,-984.863,-2.389,3.779,-1.489,28.950,-9.300,-16.800,0,0,0,212,71,5.37,0.10,0.01,0,
794847,22.60,97688,23.79,25.45,307.30,15.21,97720.25,304.54,7.812,-49.805,-995.117,1.481,-0.351,0.786,28.650,-10.500,-15.750,0,0,0,212,71,5.36,0.10,0.01,0,
796230,22.61,97688,23.78,25.34,307.22,15.20,97720.41,304.53,7.812,-44.922,-986.328,-1.344,2.794,-3.550,30.150,-8.850,-16.050,0,0,0,213,71,5.35,0.10,0.01,0,
797614,22.62,97689,23.77,25.42,307.22,15.19,97723.77,304.24,11.230,-44.922,-1000.976,0.763,-0.969,-0.962,28.650,-9.600,-16.050,0,0,0,213,71,5.34,0.10,0.01,0,
799001,22.63,97689,23.76,25.28,307.30,15.20,97726.83,303.98,12.207,-63.477,-1004.883,1.290,0.557,-1.359,28.050,-9.450,-16.200,0,0,0,214,71,5.33,0.10,0.01,0,
800382,22.64,97688,23.75,25.31,307.22,15.21,97731.11,303.61,0.488,-52.734,-1003.418,-0.145,-0.733,-3.092,29.550,-9.900,-16.950,0,0,0,212,71,5.32,0.10,0.01,0,
801766,22.65,97689,23.75,25.33,307.30,15.24,97733.81,303.38,13.672,-45.410,-979.004,2.031,-1.366,3.176,28.050,-9.450,-16.950,0,0,0,211,72,5.39,0.10,0.01,0,
803160,22.65,97690,23.74,25.34,307.22,15.29,97733.21,303.43,11.719,-52.734,-997.070,-1.489,3.656,-5.176,29.700,-10.050,-17.250,0,0,0,210,72,5.38,0.10,0.01,0,
804543,22.66,97690,23.73,25.34,307.13,15.31,97734.54,303.31,8.789,-40.527,-991.699,-2.244,2.779,-2.061,28.950,-9.150,-14.850,0,0,0,210,72,5.37,0.10,0.01,0,
805924,22.67,97690,23.72,25.43,307.22,15.37,97736.27,303.17,9.277,-40.527,-986.328,-2.672,2.702,-1.656,28.050,-9.450,-15.900,0,0,0,209,72,5.36,0.10,0.01,0,
807311,22.68,97690,23.72,25.39,307.13,15.43,97733.32,303.42,7.812,-55.176,-991.211,1.947,0.069,-0.168,29.400,-10.500,-16.800,0,0,0,211,72,5.35,0.10,0.01,0,
808698,22.68,97689,23.70,25.27,307.22,15.47,97733.75,303.38,18.555,-55.176,-996.094,0.168,1.611,-0.473,28.800,-9.900,-17.400,0,0,0,211,73,5.42,0.10,0.01,0,
810083,22.69,97690,23.70,25.42,307.05,15.51,97735.25,303.25,8.789,-47.363,-998.047,3.305,-0.771,1.458,29.700,-10.800,-16.500,0,0,0,211,73,5.41,0.10,0.01,0,
811466,22.70,97690,23.69,25.31,307.13,15.59,97737.27,303.08,12.207,-56.152,-989.258,-0.832,1.267,-1.137,27.900,-10.800,-16.500,0,0,0,212,74,5.47,0.10,0.01,0,
812854,22.71,97689,23.68,25.22,307.22,15.66,97735.34,303.25,4.883,-54.687,-985.351,1.672,1.176,-0.061,28.500,-10.650,-16.200,0,0,0,211,75,5.54,0.10,0.01,0,
814237,22.72,97690,23.67,25.36,307.13,15.73,97736.89,303.11,7.324,-55.664,-991.699,-0.695,1.573,-5.527,28.500,-9.150,-16.950,0,0,0,209,75,5.53,0.10,0.01,0,
815621,22.73,97691,23.67,25.30,307.13,15.78,97737.80,303.03,7.812,-55.664,-993.164,2.061,0.588,3.405,27.750,-8.700,-15.150,0,0,0,210,76,5.59,0.11,0.01,0,
817007,22.74,97691,23.66,25.34,307.05,15.87,97738.83,302.95,23.926,-57.617,-989.258,1.618,0.122,-0.756,28.500,-11.400,-16.200,0,0,0,210,76,5.58,0.11,0.01,0,
818391,22.75,97691,23.65,25.37,307.13,15.96,97739.13,302.92,7.324,-47.363,-1003.418,-2.412,2.802,-0.450,28.800,-9.450,-16.650,0,0,0,210,77,5.65,0.11,0.01,0,
819774,22.75,97691,23.64,25.28,307.05,16.02,97739.94,302.85,-2.930,-66.406,-994.629,0.855,0.076,-0.519,30.450,-9.600,-16.050,0,0,0,210,77,5.64,0.11,0.01,0,
821158,22.76,97690,23.64,25.22,307.13,16.11,97740.16,302.83,21.484,-52.246,-996.582,0.511,0.046,1.756,30.150,-10.050,-16.050,0,0,0,211,78,5.70,0.11,0.01,0,
822542,22.77,97690,23.63,25.40,307.13,16.20,97740.69,302.79,8.789,-57.129,-1007.812,-0.817,1.107,-0.374,28.050,-10.650,-16.950,0,0,0,211,79,5.76,0.11,0.01,0,
823925,22.78,97690,23.61,25.28,307.13,16.30,97740.92,302.77,10.742,-51.758,-991.211,1.389,-0.412,1.718,28.650,-10.500,-16.050,0,0,0,212,79,5.75,0.11,0.01,0,
825310,22.79,97690,23.61,25.28,307.13,16.37,97740.90,302.77,9.766,-45.898,-1003.418,-2.099,3.084,-0.687,29.400,-10.500,-16.800,0,0,0,212,79,5.75,0.11,0.01,0,
826693,22.79,97691,23.59,25.34,307.13,16.47,97741.25,302.74,4.883,-57.129,-985.840,-1.031,-1.473,0.160,28.950,-9.600,-17.550,0,0,0,213,79,5.74,0.11,0.01,0,
828077,22.80,97689,23.58,25.28,307.13,16.58,97741.52,302.72,0.488,-48.340,-993.652,1.076,-0.229,0.679,29.400,-10.800,-16.800,0,0,0,212,79,5.73,0.11,0.01,0,
829460,22.81,97689,23.58,25.19,307.22,16.69,97742.09,302.67,11.719,-72.754,-1017.578,-0.725,2.733,-2.840,28.650,-9.600,-16.050,0,0,0,215,79,5.72,0.11,0.01,0,
830848,22.82,97690,23.57,25.30,307.13,16.76,97740.46,302.81,6.348,-43.457,-994.629,1.305,0.901,-0.031,29.700,-11.550,-16.800,0,0,0,212,80,5.78,0.11,0.01,0,
832231,22.83,97690,23.56,25.27,307.13,16.85,97735.98,303.19,4.883,-61.523,-994.141,1.756,1.542,-1.275,29.700,-10.500,-18.600,0,0,0,213,81,5.84,0.11,0.01,0,
833614,22.84,97690,23.56,25.37,307.13,16.91,97732.53,303.49,0.488,-50.293,-989.258,-1.015,2.611,-3.809,28.650,-10.500,-16.050,0,0,0,190,82,5.90,0.11,0.01,0,
835002,22.84,97689,23.54,25.28,307.22,16.96,97729.39,303.76,-0.488,-41.992,-989.746,-0.809,3.221,-0.336,28.800,-9.150,-15.150,0,0,0,213,82,5.89,0.11,0.01,0,
836384,22.85,97690,23.54,25.22,307.13,16.98,97728.03,303.87,7.324,-47.852,-995.117,-0.374,2.962,-1.092,29.400,-10.800,-16.050,0,0,0,209,82,5.88,0.11,0.01,0,
837768,22.86,97691,23.53,25.34,307.05,17.02,97725.74,304.07,3.906,-55.664,-986.816,0.107,1.626,1.290,29.250,-9.900,-16.200,0,0,0,211,82,5.87,0.11,0.01,0,
839161,22.87,97690,23.53,25.30,307.13,17.05,97723.86,304.23,6.836,-43.945,-1002.930,-0.412,2.962,-1.985,29.400,-8.550,-18.300,0,0,0,214,83,5.94,0.11,0.01,0,
840543,22.88,97690,23.51,25.27,307.13,17.07,97722.35,304.36,6.348,-48.340,-985.840,-2.015,4.695,-3.855,29.850,-8.400,-16.950,0,0,0,217,83,5.93,0.11,0.01,0,
841926,22.89,97690,23.51,25.31,307.13,17.09,97721.53,304.43,5.859,-55.176,-992.676,-1.015,2.511,-4.038,28.650,-9.600,-14.700,0,0,0,219,83,5.92,0.11,0.01,0,
843313,22.89,97691,23.50,25.22,307.05,17.10,97720.71,304.50,1.465,-49.316,-1000.488,0.695,-0.947,3.092,28.650,-10.800,-17.550,0,0,0,217,83,5.91,0.11,0.01,0,
844700,22.90,97689,23.49,25.16,307.22,17.11,97719.63,304.59,0.977,-45.410,-986.816,2.626,0.344,0.718,28.800,-10.950,-16.950,0,0,0,215,83,5.90,0.11,0.01,0,
846085,22.91,97687,23.49,25.40,307.30,17.12,97718.99,304.65,14.160,-54.199,-984.863,-0.611,0.458,-1.298,28.950,-10.050,-17.850,0,0,0,214,83,5.89,0.11,0.01,0,
847468,22.92,97689,23.49,25.22,307.22,17.12,97718.67,304.68,15.625,-51.270,-992.187,-2.466,2.282,-0.481,28.950,-11.250,-16.050,0,0,0,214,83,5.88,0.11,0.01,0,
848854,22.93,97689,23.49,25.27,307.22,17.11,97717.85,304.74,11.230,-61.523,-987.305,-2.000,2.053,-2.107,30.900,-8.850,-15.750,0,0,0,215,84,5.94,0.11,0.01,0,
850237,22.93,97689,23.47,25.20,307.22,17.09,97717.33,304.79,10.254,-41.992,-996.094,0.275,0.954,1.305,28.950,-10.050,-16.500,0,0,0,214,84,5.93,0.11,0.01,0,
851620,22.94,97688,23.48,25.22,307.30,17.07,97716.64,304.85,-1.953,-51.270,-994.141,0.916,-0.427,-0.718,28.800,-11.700,-16.200,0,0,0,213,84,5.92,0.11,0.01,0,
853008,22.95,97689,23.46,25.22,307.22,17.05,97716.67,304.84,5.371,-47.363,-986.328,-2.962,3.313,-1.084,27.750,-8.700,-16.950,0,0,0,213,84,5.91,0.11,0.01,0,
854391,22.96,97689,23.46,25.22,307.30,17.04,97716.46,304.87,22.461,-44.922,-1000.000,1.405,0.779,2.695,29.850,-10.650,-16.200,0,0,0,213,84,5.90,0.11,0.01,0,
855775,22.97,97688,23.46,25.22,307.30,17.01,97716.01,304.90,19.531,-60.059,-999.023,-3.336,2.504,-1.183,28.500,-10.200,-16.200,0,0,0,213,84,5.89,0.11,0.01,0,
857160,22.97,97688,23.45,25.28,307.30,16.99,97715.80,304.92,12.695,-52.246,-983.398,0.427,-0.023,2.137,30.150,-8.100,-16.500,0,0,0,213,84,5.88,0.11,0.01,0,
858544,22.98,97688,23.45,25.22,307.30,16.97,97715.58,304.94,16.602,-51.270,-994.629,1.504,0.679,-0.687,27.750,-9.450,-16.650,0,0,0,214,84,5.87,0.11,0.01,0,
859925,22.99,97687,23.44,25.28,307.39,16.94,97714.85,305.00,15.625,-48.828,-989.258,-3.595,1.489,-2.107,29.550,-9.150,-15.150,0,0,0,216,84,5.86,0.11,0.01,0,
861312,23.00,97688,23.43,25.16,307.30,16.92,97714.28,305.05,7.812,-56.641,-994.629,-1.229,2.435,-3.718,29.400,-10.800,-16.800,0,0,0,215,85,5.92,0.11,0.01,0,
862693,23.01,97687,23.44,25.36,307.30,16.90,97714.17,305.06,2.930,-58.105,-989.746,0.695,-1.565,-0.038,29.250,-11.400,-15.600,0,0,0,216,85,5.91,0.11,0.01,0,
864076,23.02,97687,23.42,25.20,307.30,16.86,97713.42,305.12,5.371,-49.805,-991.699,-2.069,1.565,-2.443,29.250,-9.450,-16.950,0,0,0,213,85,5.90,0.11,0.01,0,
865460,23.03,97687,23.42,25.17,307.30,16.82,97713.17,305.15,9.766,-50.293,-978.516,2.137,1.779,-0.107,29.250,-10.200,-16.650,0,0,0,216,85,5.89,0.11,0.01,0,
866847,23.03,97689,23.41,25.25,307.22,16.80,97713.05,305.16,19.531,-49.805,-997.070,-0.443,2.214,-1.977,30.150,-10.500,-16.800,0,0,0,216,85,5.89,0.11,0.01,0,
868231,23.04,97689,23.40,25.08,307.22,16.78,97712.75,305.18,10.254,-46.387,-984.375,-1.046,4.748,0.198,28.650,-9.300,-15.750,0,0,0,212,86,5.94,0.11,0.01,0,
869614,23.05,97688,23.40,25.22,307.22,16.76,97712.11,305.24,11.230,-54.687,-993.164,-2.443,3.069,-2.855,29.700,-10.500,-16.050,0,0,0,211,86,5.94,0.11,0.01,0,
871000,23.06,97688,23.38,25.22,307.22,16.75,97712.31,305.22,18.066,-55.664,-988.769,-2.015,2.710,-2.702,30.300,-10.650,-17.700,0,0,0,212,86,5.93,0.11,0.01,0,
872383,23.06,97689,23.38,25.22,307.22,16.72,97712.10,305.24,-5.859,-32.227,-989.746,1.023,-0.687,-1.282,28.500,-10.650,-16.650,0,0,0,213,86,5.92,0.11,0.01,0,
873766,23.07,97688,23.38,25.19,307.30,16.71,97712.19,305.23,20.020,-50.781,-999.512,-0.878,2.489,-0.695,29.550,-10.650,-15.900,0,0,0,213,86,5.91,0.11,0.01,0,
875161,23.08,97688,23.36,25.11,307.30,16.69,97712.23,305.23,11.719,-52.246,-1001.953,1.191,2.214,0.611,29.850,-9.900,-15.900,0,0,0,212,86,5.90,0.11,0.01,0,
876545,23.09,97687,23.35,25.17,307.39,16.68,97711.69,305.27,6.836,-53.223,-995.605,-2.496,1.435,-0.122,29.850,-9.150,-16.950,0,0,0,212,86,5.89,0.11,0.01,0,
877928,23.10,97688,23.34,25.17,307.30,16.66,97711.88,305.26,4.883,-57.617,-997.559,1.733,-1.168,2.176,28.800,-10.200,-15.600,0,0,0,210,86,5.88,0.11,0.01,0,
879314,23.11,97688,23.35,25.19,307.30,16.65,97711.72,305.27,14.648,-54.199,-986.328,1.076,0.527,-0.427,28.950,-10.050,-16.500,0,0,0,210,86,5.87,0.11,0.01,0,
880702,23.11,97688,23.33,25.23,307.30,16.64,97712.30,305.22,10.742,-50.293,-998.535,-2.023,3.374,-3.824,29.850,-10.200,-16.200,0,0,0,213,86,5.86,0.11,0.01,0,
882086,23.12,97687,23.33,25.19,307.48,16.63,97712.30,305.22,7.324,-50.293,-996.094,-1.160,1.687,-1.985,28.800,-10.650,-17.700,0,0,0,212,87,5.92,0.11,0.01,0,
883470,23.13,97688,23.32,25.11,307.30,16.62,97712.50,305.20,9.277,-46.387,-995.117,-0.435,-0.229,1.756,28.500,-9.900,-16.950,0,0,0,213,87,5.91,0.11,0.01,0,
884857,23.14,97688,23.32,25.13,307.30,16.62,97712.66,305.19,0.977,-45.410,-990.723,-3.702,2.565,-0.198,30.300,-11.400,-15.900,0,0,0,212,88,5.97,0.11,0.01,0,
886241,23.15,97689,23.32,25.17,307.30,16.61,97712.28,305.22,11.230,-52.246,-999.023,0.649,0.557,2.702,27.900,-9.300,-15.300,0,0,0,212,88,5.96,0.11,0.01,0,
887624,23.16,97688,23.31,25.13,307.30,16.59,97712.36,305.22,5.371,-51.270,-990.723,-0.748,4.092,-0.466,28.950,-8.850,-15.750,0,0,0,213,88,5.95,0.11,0.01,0,
889011,23.16,97687,23.30,25.17,307.39,16.58,97712.46,305.21,22.949,-56.152,-999.512,-1.420,3.695,-3.557,28.800,-12.150,-17.400,0,0,0,212,88,5.94,0.11,0.01,0,
890395,23.17,97687,23.28,25.05,307.39,16.57,97712.82,305.18,18.555,-62.500,-1005.371,2.908,-2.000,-1.229,29.400,-10.800,-15.750,0,0,0,213,88,5.93,0.11,0.01,0,
891779,23.18,97688,23.29,25.14,307.30,16.55,97712.74,305.18,14.648,-61.523,-984.375,3.183,0.282,-0.473,28.200,-10.500,-17.250,0,0,0,213,89,5.99,0.11,0.01,0,
893164,23.19,97689,23.27,25.02,307.30,16.54,97713.09,305.15,7.324,-67.383,-993.164,-0.626,3.519,-1.328,28.050,-10.950,-16.650,0,0,0,214,89,5.98,0.11,0.01,0,
894547,23.20,97688,23.26,25.10,307.39,16.53,97713.02,305.16,11.719,-54.199,-994.629,0.130,0.122,0.908,29.250,-10.200,-17.400,0,0,0,213,89,5.97,0.11,0.01,0,
895931,23.21,97688,23.27,25.13,307.30,16.52,97712.57,305.20,22.949,-64.453,-987.305,0.733,0.405,0.740,29.250,-10.950,-16.200,0,0,0,213,89,5.96,0.11,0.01,0,
897317,23.21,97688,23.26,25.07,307.39,16.51,97712.57,305.20,13.672,-55.664,-993.164,-1.038,4.328,2.573,29.550,-10.650,-17.400,0,0,0,212,89,5.95,0.11,0.01,0,
898699,23.22,97687,23.25,25.01,307.39,16.49,97712.68,305.19,8.789,-51.758,-995.605,2.252,1.397,-1.527,28.650,-8.850,-15.000,0,0,0,213,89,5.94,0.11,0.01,0,
900082,23.23,97687,23.25,25.13,307.39,16.49,97712.61,305.19,14.648,-50.781,-986.816,-3.015,1.794,-1.160,28.500,-9.150,-16.200,0,0,0,213,89,5.93,0.11,0.01,0,
901464,23.24,97688,23.23,25.25,307.30,16.48,97712.67,305.19,13.672,-46.875,-990.234,0.924,-0.359,1.382,29.400,-11.250,-16.500,0,0,0,214,89,5.93,0.11,0.01,0,
902851,23.24,97689,23.23,25.01,307.30,16.47,97712.78,305.18,13.672,-44.434,-992.676,-0.786,4.275,-1.046,28.800,-10.950,-15.900,0,0,0,215,89,5.92,0.11,0.01,0,
904235,23.25,97689,23.23,25.11,307.30,16.45,97712.42,305.21,8.301,-44.922,-984.863,-0.511,1.458,-3.809,28.050,-9.450,-15.900,0,0,0,215,89,5.91,0.11,0.01,0,
905619,23.26,97689,23.22,25.04,307.30,16.45,97712.35,305.22,8.789,-56.641,-993.652,0.863,-0.252,0.405,28.200,-10.800,-15.750,0,0,0,216,89,5.90,0.11,0.01,0,
907005,23.27,97689,23.23,24.98,307.22,16.44,97711.87,305.26,27.832,-65.430,-1001.465,-1.359,2.756,-5.084,28.500,-10.950,-16.950,0,0,0,214,89,5.89,0.11,0.01,0,
908387,23.28,97690,23.22,25.01,307.22,16.42,97711.63,305.28,14.648,-54.199,-999.512,1.145,-0.282,-0.366,27.450,-9.600,-18.300,0,0,0,211,89,5.88,0.11,0.01,0,
909768,23.29,97689,23.22,25.07,307.30,16.40,97711.35,305.30,2.441,-61.523,-998.047,2.046,2.435,-0.038,29.850,-11.400,-16.650,0,0,0,213,89,5.87,0.11,0.01,0,
911166,23.29,97689,23.21,24.96,307.30,16.39,97711.03,305.33,17.090,-65.918,-997.070,0.382,-1.405,-0.313,29.700,-11.250,-16.800,0,0,0,220,89,5.86,0.11,0.01,0,
912549,23.30,97688,23.20,25.02,307.39,16.38,97711.14,305.32,20.508,-53.223,-1006.836,0.779,1.344,0.076,29.550,-9.150,-15.900,0,0,0,220,89,5.85,0.11,0.01,0,
913933,23.31,97689,23.20,25.10,307.22,16.37,97711.22,305.31,12.207,-54.687,-997.070,1.206,1.137,2.267,29.250,-10.200,-15.900,0,0,0,217,90,5.91,0.11,0.01,0,
915319,23.32,97689,23.20,25.01,307.22,16.36,97711.47,305.29,20.020,-69.824,-992.187,0.336,-0.855,0.214,29.400,-9.300,-16.050,0,0,0,211,90,5.90,0.11,0.01,0,
916707,23.33,97689,23.20,25.05,307.22,16.36,97711.57,305.28,5.859,-54.199,-988.769,-0.504,2.374,-0.084,28.800,-8.700,-15.900,0,0,0,214,90,5.89,0.11,0.01,0,
918091,23.33,97689,23.19,24.92,307.22,16.34,97711.20,305.31,0.488,-57.617,-977.051,-1.160,3.779,-3.794,29.700,-10.500,-17.250,0,0,0,214,90,5.88,0.11,0.01,0,
919475,23.34,97689,23.18,24.95,307.13,16.33,97711.05,305.33,14.160,-57.129,-991.699,2.977,0.000,1.817,29.850,-9.450,-16.200,0,0,0,212,90,5.87,0.11,0.01,0,
920862,23.35,97690,23.17,25.08,307.22,16.32,97711.30,305.31,6.836,-56.641,-984.863,-2.595,1.855,-1.489,29.400,-8.550,-15.300,0,0,0,215,91,5.93,0.11,0.01,0,
922246,23.36,97689,23.17,24.89,307.22,16.30,97711.33,305.30,12.695,-49.805,-995.117,0.481,2.573,-2.069,29.250,-10.650,-16.200,0,0,0,214,91,5.92,0.11,0.01,0,
923629,23.37,97691,23.17,24.92,307.13,16.28,97711.91,305.25,21.484,-51.758,-989.258,-1.534,3.679,-1.977,28.050,-10.200,-17.700,0,0,0,214,91,5.91,0.11,0.01,0,
925017,23.37,97690,23.16,24.95,307.05,16.26,97712.18,305.23,20.020,-59.570,-979.492,-0.847,3.183,-0.534,30.900,-10.800,-16.050,0,0,0,214,91,5.90,0.11,0.01,0,
926400,23.38,97691,23.15,24.89,307.05,16.21,97712.05,305.24,14.160,-50.781,-986.816,-2.542,3.366,-1.565,30.600,-10.200,-17.400,0,0,0,214,91,5.90,0.11,0.01,0,
927783,23.39,97690,23.14,24.86,307.13,16.19,97712.22,305.23,16.113,-55.664,-991.211,0.718,0.557,2.031,29.850,-10.200,-16.950,0,0,0,213,91,5.89,0.11,0.01,0,
929170,23.40,97690,23.13,24.98,307.13,16.16,97712.35,305.22,7.812,-51.758,-990.723,-2.481,2.870,-1.450,31.050,-9.900,-16.950,0,0,0,212,91,5.88,0.11,0.01,0,
930553,23.41,97690,23.13,25.07,307.13,16.14,97712.79,305.18,3.418,-54.199,-994.141,-1.153,3.015,0.504,30.300,-10.950,-15.900,0,0,0,213,91,5.87,0.11,0.01,0,
931937,23.41,97690,23.11,24.89,307.22,16.12,97712.55,305.20,1.953,-62.988,-991.699,0.618,0.611,2.000,30.300,-8.700,-15.150,0,0,0,213,91,5.86,0.11,0.01,0,
933321,23.42,97690,23.10,25.01,307.13,16.09,97713.07,305.16,8.301,-53.711,-992.187,2.313,-1.878,-0.137,29.400,-9.300,-17.250,0,0,0,212,91,5.85,0.11,0.01,0,
934705,23.43,97690,23.09,25.00,307.05,16.08,97713.10,305.15,9.766,-48.828,-996.582,-2.763,2.794,-1.901,30.900,-11.550,-16.500,0,0,0,212,91,5.84,0.11,0.01,0,
936088,23.44,97691,23.08,24.89,307.13,16.06,97713.44,305.12,18.066,-52.246,-988.281,-2.626,2.832,-3.084,30.150,-10.500,-15.000,0,0,0,214,91,5.83,0.11,0.01,0,
937473,23.44,97690,23.08,25.01,307.13,16.05,97713.47,305.12,15.625,-54.199,-994.141,2.076,-1.031,1.031,28.500,-10.950,-16.200,0,0,0,214,91,5.83,0.11,0.01,0,
938860,23.45,97691,23.06,24.95,307.13,16.01,97713.82,305.09,3.906,-60.059,-986.816,-2.176,1.435,-5.290,29.850,-9.900,-15.600,0,0,0,215,91,5.82,0.11,0.01,0,
940243,23.46,97690,23.06,24.98,307.13,15.99,97714.74,305.01,13.184,-60.059,-988.769,1.298,-1.985,0.931,28.800,-9.450,-16.650,0,0,0,213,91,5.81,0.11,0.01,0,
941627,23.47,97691,23.04,25.00,307.13,15.97,97714.75,305.01,-3.906,-49.316,-986.816,-2.794,3.908,-0.916,27.750,-9.900,-17.400,0,0,0,213,91,5.80,0.11,0.01,0,
943013,23.47,97691,23.03,25.01,307.05,15.97,97715.33,304.96,8.301,-66.406,-996.582,0.023,1.939,-0.168,29.550,-10.950,-15.900,0,0,0,214,91,5.79,0.11,0.01,0,
944397,23.48,97690,23.01,24.98,307.13,15.95,97715.41,304.96,18.555,-53.711,-999.023,2.107,-0.534,2.885,29.400,-8.850,-16.050,0,0,0,213,91,5.78,0.11,0.01,0,
945780,23.49,97689,23.01,25.05,307.30,15.94,97716.22,304.88,20.996,-54.199,-993.652,-1.427,3.710,-2.237,28.200,-9.300,-16.500,0,0,0,213,91,5.77,0.11,0.01,0,
947176,23.49,97689,22.99,24.86,307.13,15.93,97716.25,304.88,-0.977,-56.641,-986.328,-1.771,2.901,-2.817,28.950,-9.300,-16.050,0,0,0,213,91,5.77,0.11,0.01,0,
948559,23.50,97690,22.98,24.92,307.22,15.93,97716.57,304.85,20.020,-46.875,-992.676,1.015,0.450,0.359,29.550,-9.450,-15.600,0,0,0,212,91,5.76,0.11,0.01,0,
949943,23.51,97690,22.97,25.04,307.13,15.92,97716.49,304.86,5.859,-63.477,-988.281,-0.153,-1.389,-1.771,27.900,-10.800,-16.500,0,0,0,214,91,5.75,0.11,0.01,0,
951328,23.52,97690,22.96,25.04,307.05,15.91,97716.90,304.83,13.184,-61.523,-986.816,-2.221,3.710,-1.351,29.550,-10.950,-16.650,0,0,0,214,91,5.74,0.11,0.01,0,
952715,23.52,97691,22.95,24.92,307.05,15.90,97717.17,304.80,17.090,-59.082,-1002.441,-1.580,2.901,-2.420,27.750,-10.200,-16.650,0,0,0,213,91,5.73,0.11,0.01,0,
954099,23.53,97691,22.93,24.88,307.13,15.89,97717.26,304.79,12.207,-51.270,-996.094,-1.458,3.603,-1.153,29.550,-10.650,-16.950,0,0,0,214,92,5.79,0.11,0.01,0,
955483,23.54,97691,22.92,24.89,307.05,15.88,97717.20,304.80,13.184,-52.734,-1005.859,-0.344,2.237,-1.397,28.950,-10.800,-16.050,0,0,0,213,92,5.78,0.11,0.01,0,
956868,23.54,97690,22.91,25.05,307.13,15.86,97717.13,304.81,5.371,-48.340,-995.605,-1.229,3.031,-2.168,29.550,-9.900,-15.900,0,0,0,214,92,5.77,0.11,0.01,0,
958252,23.55,97690,22.91,25.07,307.13,15.85,97717.61,304.77,14.648,-49.316,-991.211,1.992,-0.122,-0.252,29.550,-10.200,-14.850,0,0,0,215,92,5.76,0.11,0.01,0,
959635,23.56,97690,22.88,25.07,307.13,15.84,97717.55,304.77,13.184,-49.316,-991.211,-1.069,-1.641,1.679,29.400,-10.050,-17.250,0,0,0,212,92,5.75,0.11,0.01,0,
961022,23.57,97690,22.88,25.00,307.13,15.83,97717.57,304.77,15.625,-35.645,-986.816,-2.290,2.221,-3.740,29.550,-8.700,-15.900,0,0,0,209,93,5.81,0.11,0.01,0,
962406,23.57,97689,22.86,24.98,307.22,15.81,97717.25,304.80,11.230,-47.363,-979.004,-2.695,1.878,-2.855,29.850,-9.450,-15.600,0,0,0,216,93,5.80,0.11,0.01,0,
963789,23.58,97689,22.86,24.95,307.22,15.80,97717.13,304.81,14.648,-60.059,-998.047,2.695,-1.206,1.092,28.650,-12.000,-16.050,0,0,0,218,93,5.79,0.11,0.01,0,
965176,23.59,97689,22.84,25.07,307.13,15.78,97717.05,304.81,14.160,-54.199,-993.652,-0.420,2.214,-0.382,29.400,-11.550,-15.750,0,0,0,217,93,5.78,0.11,0.01,0,
966559,23.59,97689,22.83,25.01,307.22,15.78,97717.05,304.81,11.230,-51.270,-1004.394,0.344,2.122,-0.466,28.800,-8.700,-16.650,0,0,0,219,93,5.77,0.11,0.01,0,
967943,23.60,97688,22.82,24.93,307.22,15.77,97717.39,304.79,31.250,-56.641,-996.582,-0.038,0.145,-0.344,28.950,-9.600,-15.000,0,0,0,215,93,5.77,0.11,0.01,0,
969329,23.61,97689,22.81,25.02,307.13,15.77,97717.30,304.79,0.977,-40.527,-996.094,2.809,0.740,1.122,28.650,-10.800,-16.500,0,0,0,226,93,5.76,0.11,0.01,0,
970713,23.61,97689,22.81,25.04,307.22,15.77,97718.26,304.71,12.207,-66.406,-995.605,-3.817,1.924,-3.183,28.800,-9.900,-16.200,0,0,0,208,93,5.75,0.11,0.01,0,
972096,23.62,97688,22.79,25.00,307.22,15.77,97718.21,304.71,9.766,-51.270,-990.234,-2.069,2.779,-1.198,29.550,-11.400,-16.650,0,0,0,208,93,5.74,0.11,0.01,0,
973479,23.63,97689,22.79,25.01,307.13,15.77,97719.97,304.56,5.371,-52.246,-996.094,3.405,-0.107,2.473,28.200,-8.550,-15.300,0,0,0,236,93,5.73,0.11,0.01,0,
974867,23.64,97689,22.78,24.95,307.13,15.78,97721.46,304.43,8.789,-58.594,-999.023,1.420,0.389,0.076,30.150,-10.050,-16.050,0,0,0,228,93,5.73,0.11,0.01,0,
976250,23.64,97688,22.77,24.95,307.22,15.79,97720.89,304.49,7.324,-55.176,-999.023,1.687,-0.908,-0.321,30.150,-10.800,-16.500,0,0,0,243,93,5.72,0.11,0.01,0,
977634,23.65,97689,22.74,24.98,307.22,15.80,97720.24,304.54,11.230,-50.781,-997.070,1.328,1.664,1.962,29.400,-10.050,-14.700,0,0,0,216,93,5.71,0.11,0.01,0,
979021,23.66,97688,22.72,25.01,307.22,15.80,97720.16,304.55,11.230,-44.434,-990.723,2.145,1.771,2.382,29.400,-10.050,-16.500,0,0,0,213,93,5.70,0.11,0.01,0,
980405,23.66,97689,22.73,25.01,307.22,15.80,97720.25,304.54,14.648,-47.852,-996.582,1.756,0.626,3.962,29.550,-10.950,-14.100,0,0,0,195,93,5.69,0.11,0.01,0,
981788,23.67,97689,22.71,25.01,307.22,15.81,97719.66,304.59,7.324,-98.633,-959.961,0.672,-0.008,2.656,30.150,-10.800,-15.750,0,0,0,189,94,5.75,0.11,0.01,0,
983183,23.67,97688,22.69,24.95,307.22,15.81,97722.89,304.31,-25.391,-36.133,-992.187,-0.198,0.252,0.244,30.300,-10.200,-14.850,0,0,0,193,94,5.74,0.11,0.01,0,
984566,23.68,97688,22.69,24.98,307.30,15.84,97723.35,304.27,-14.160,-35.156,-987.305,0.802,0.237,-1.115,28.950,-10.050,-15.750,0,0,0,202,94,5.73,0.11,0.01,0,
985949,23.69,97689,22.67,25.07,307.22,15.85,97722.67,304.33,-11.719,-38.574,-993.652,3.198,-0.145,0.450,31.050,-9.900,-15.600,0,0,0,205,94,5.72,0.11,0.01,0,
987334,23.70,97689,22.66,24.96,307.13,15.87,97726.35,304.02,-2.441,-46.875,-1000.976,-1.412,3.137,-1.809,29.850,-9.450,-15.900,0,0,0,209,94,5.71,0.11,0.01,0,
988723,23.70,97689,22.66,25.01,307.22,15.92,97729.52,303.75,-13.184,-44.434,-994.141,0.122,0.336,-3.092,30.900,-8.550,-16.050,0,0,0,211,94,5.71,0.11,0.01,0,
990106,23.71,97690,22.65,24.98,307.13,15.98,97732.59,303.48,-6.348,-27.344,-991.211,2.008,0.229,1.695,30.600,-8.700,-15.600,0,0,0,210,95,5.76,0.11,0.01,0,
991491,23.72,97689,22.64,24.92,307.22,16.02,97733.92,303.37,-6.836,-36.133,-1000.000,1.893,1.115,0.977,31.050,-10.200,-16.200,0,0,0,216,95,5.75,0.11,0.01,0,
992878,23.73,97689,22.63,24.95,307.30,16.09,97735.68,303.22,-10.254,-29.785,-983.398,1.290,-0.527,1.702,28.500,-7.950,-15.900,0,0,0,231,95,5.74,0.11,0.01,0,
994262,23.74,97689,22.62,24.89,307.22,16.17,97737.11,303.10,-20.508,-21.973,-1001.953,1.542,2.389,3.237,30.600,-8.700,-16.950,0,0,0,230,95,5.73,0.11,0.01,0,
995645,23.74,97690,22.62,25.05,307.22,16.25,97736.04,303.19,-9.277,-31.250,-993.164,-1.687,2.802,-3.107,30.150,-8.550,-15.750,0,0,0,223,95,5.73,0.11,0.01,0,
997032,23.75,97689,22.61,25.04,307.13,16.29,97737.16,303.09,-16.602,-25.879,-997.559,-3.115,2.053,-0.664,30.450,-8.550,-15.750,0,0,0,220,96,5.78,0.11,0.01,0,
998416,23.76,97690,22.60,24.92,307.13,16.38,97738.24,303.00,-17.090,-33.691,-982.422,-1.053,2.710,-3.221,29.850,-8.700,-14.850,0,0,0,217,96,5.77,0.11,0.01,0,
999799,23.77,97691,22.60,25.01,307.13,16.47,97739.66,302.88,-11.230,-30.762,-990.234,-0.069,3.863,-1.359,30.300,-9.900,-14.400,0,0,0,219,96,5.76,0.11,0.01,0,
1001187,23.77,97691,22.59,24.95,307.05,16.53,97740.27,302.82,-15.137,-36.621,-988.281,1.260,1.687,0.908,30.150,-9.600,-15.000,0,0,0,219,96,5.75,0.11,0.01,0,
1002570,23.78,97691,22.58,24.95,307.13,16.61,97737.13,303.09,-15.137,-41.992,-994.141,-2.573,3.313,-1.443,30.150,-9.600,-16.500,0,0,0,212,96,5.75,0.11,0.01,0,
1003954,23.79,97690,22.57,24.95,307.05,16.66,97733.21,303.43,-7.324,-38.574,-999.512,-0.046,-2.160,1.855,30.300,-9.450,-15.600,0,0,0,208,96,5.74,0.11,0.01,0,
1005340,23.79,97690,22.56,25.01,307.13,16.71,97732.56,303.48,-8.789,-41.504,-998.047,-0.282,2.740,-0.855,30.300,-9.450,-15.600,0,0,0,203,96,5.73,0.11,0.01,0,
1006722,23.80,97690,22.55,24.89,307.05,16.74,97730.57,303.66,-2.441,-29.785,-1000.488,2.687,0.527,-2.275,31.050,-9.450,-15.900,0,0,0,210,96,5.72,0.11,0.01,0,
1008105,23.81,97691,22.55,24.92,307.05,16.78,97728.12,303.86,-18.066,-58.594,-1002.930,2.626,0.565,-0.969,31.050,-10.200,-15.600,0,0,0,212,96,5.72,0.11,0.01,0,
1009491,23.81,97690,22.53,24.93,307.13,16.81,97726.24,304.03,-5.371,-43.945,-1006.348,3.076,-0.908,-0.870,29.850,-9.150,-17.400,0,0,0,218,96,5.71,0.11,0.01,0,
1010876,23.82,97689,22.53,24.92,307.13,16.82,97724.34,304.19,-16.602,-43.457,-999.023,-2.107,3.038,-0.611,30.150,-10.500,-15.300,0,0,0,217,96,5.70,0.11,0.01,0,
1012259,23.83,97690,22.52,25.04,307.22,16.83,97723.21,304.29,-5.859,-34.668,-990.723,-2.290,3.885,-3.000,30.300,-9.150,-16.200,0,0,0,214,96,5.69,0.11,0.01,0,
1013643,23.84,97690,22.52,24.92,307.13,16.85,97724.41,304.18,-10.742,-33.203,-995.605,-2.321,2.748,1.466,30.600,-9.450,-15.900,0,0,0,220,96,5.68,0.11,0.01,0,
1015030,23.84,97690,22.52,24.85,307.13,16.87,97726.29,304.02,-8.301,-21.484,-991.699,2.359,-0.008,0.863,29.250,-10.200,-15.600,0,0,0,217,96,5.68,0.11,0.01,0,
1016414,23.85,97690,22.51,24.96,307.05,16.91,97729.70,303.73,-11.719,-40.527,-1000.976,-3.565,2.321,-2.389,30.450,-9.300,-15.300,0,0,0,215,96,5.67,0.11,0.01,0,
1017797,23.86,97691,22.50,24.80,306.96,16.95,97731.81,303.55,-8.789,-37.598,-991.211,1.634,0.840,0.847,29.700,-8.550,-15.300,0,0,0,214,96,5.66,0.11,0.01,0,
1019192,23.86,97691,22.50,24.91,307.13,17.01,97734.39,303.33,-3.418,-36.621,-987.793,-1.519,2.481,-0.649,28.950,-9.300,-17.550,0,0,0,213,96,5.65,0.11,0.01,0,
1020575,23.87,97691,22.49,24.83,307.13,17.07,97736.05,303.19,-10.254,-32.227,-987.305,-1.954,3.267,-0.702,28.800,-7.950,-15.900,0,0,0,212,96,5.65,0.11,0.01,0,
1021960,23.88,97691,22.48,24.95,307.05,17.13,97738.07,303.01,-3.418,-35.156,-1004.883,0.244,-1.489,1.504,29.250,-7.950,-15.900,0,0,0,213,96,5.64,0.11,0.01,0,
1023345,23.88,97690,22.48,24.89,307.13,17.17,97739.35,302.90,-19.531,-28.320,-1003.418,0.115,0.626,1.389,30.600,-10.200,-14.850,0,0,0,212,96,5.63,0.11,0.01,0,
1024732,23.89,97689,22.48,24.93,307.13,17.24,97740.41,302.81,-15.625,-50.781,-984.375,2.328,-1.069,-1.153,29.700,-8.100,-15.000,0,0,0,212,96,5.62,0.11,0.01,0,
1026116,23.90,97690,22.47,24.79,307.13,17.31,97740.86,302.77,-9.766,-39.062,-983.398,-0.924,4.618,-1.756,30.300,-9.900,-16.650,0,0,0,212,96,5.61,0.11,0.01,0,
1027503,23.90,97691,22.47,24.95,307.05,17.39,97741.28,302.74,-10.254,-40.527,-1003.418,0.618,-0.702,1.702,30.900,-8.550,-15.750,0,0,0,208,96,5.61,0.11,0.01,0,
1028886,23.91,97692,22.46,24.96,306.96,17.44,97741.59,302.71,-0.977,-32.715,-995.605,2.099,1.870,1.573,29.700,-9.300,-16.500,0,0,0,201,96,5.60,0.11,0.01,0,
1030269,23.92,97691,22.46,24.86,307.05,17.53,97741.94,302.68,-14.160,-49.316,-997.559,-0.214,1.863,-2.985,29.850,-9.450,-14.850,0,0,0,208,96,5.59,0.11,0.01,0,
1031656,23.93,97692,22.45,24.80,306.96,17.62,97742.41,302.64,-11.719,-44.922,-994.141,-0.679,3.069,-2.588,29.400,-10.500,-15.300,0,0,0,217,96,5.58,0.11,0.01,0,
1033039,23.93,97692,22.45,24.89,306.96,17.70,97743.00,302.59,-5.859,-44.922,-988.281,-2.252,2.626,0.809,31.350,-9.150,-15.900,0,0,0,216,96,5.58,0.11,0.01,0,
1034423,23.94,97692,22.45,24.79,307.05,17.76,97742.71,302.61,-10.742,-32.227,-995.117,-2.901,3.137,-2.176,30.150,-8.850,-16.500,0,0,0,212,96,5.57,0.11,0.01,0,
1035806,23.95,97690,22.44,24.83,307.13,17.85,97742.55,302.63,-16.602,-39.062,-994.629,-3.420,2.603,-3.802,31.050,-8.400,-15.150,0,0,0,204,96,5.56,0.10,0.01,0,
1037195,23.96,97691,22.45,24.86,307.05,17.94,97742.94,302.59,-19.531,-42.969,-987.793,0.756,0.351,1.427,30.150,-9.300,-15.000,0,0,0,207,96,5.55,0.10,0.01,0,
1038578,23.96,97692,22.43,24.80,306.88,18.03,97743.51,302.55,-14.160,-36.133,-993.652,-4.267,3.252,-3.527,30.450,-9.300,-16.800,0,0,0,214,96,5.55,0.10,0.01,0,
1039962,23.97,97692,22.42,24.73,306.96,18.09,97743.16,302.57,-17.578,-32.715,-997.559,-0.611,2.794,-2.420,30.900,-9.600,-14.250,0,0,0,214,96,5.54,0.10,0.01,0,
1041349,23.98,97692,22.42,24.85,307.05,18.18,97743.80,302.52,-16.602,-36.133,-997.559,-3.031,4.015,0.641,29.250,-10.950,-16.200,0,0,0,217,96,5.53,0.10,0.01,0,
1042733,23.99,97691,22.41,24.74,307.05,18.27,97743.86,302.51,3.418,-46.875,-991.211,0.908,-0.511,0.756,31.350,-9.900,-14.850,0,0,0,229,96,5.53,0.10,0.01,0,
1044116,23.99,97690,22.41,24.70,307.05,18.35,97744.35,302.47,4.883,-37.598,-983.398,-1.534,3.260,0.198,30.300,-9.150,-15.600,0,0,0,224,96,5.52,0.10,0.01,0,
1045502,24.00,97691,22.39,24.93,307.05,18.39,97744.50,302.46,-10.254,-33.691,-1009.277,-1.977,1.351,-3.954,29.550,-9.450,-15.900,0,0,0,219,96,5.51,0.10,0.01,0,
1046886,24.01,97690,22.40,24.80,307.05,18.45,97745.00,302.42,-12.695,-37.109,-996.094,0.573,1.962,3.260,29.250,-10.650,-15.150,0,0,0,217,96,5.50,0.10,0.01,0,
1048270,24.01,97691,22.38,24.80,306.96,18.50,97744.50,302.46,-6.836,-38.574,-988.281,-0.725,3.489,-1.832,31.050,-10.650,-15.150,0,0,0,216,96,5.50,0.10,0.01,0,
